accx,accy,accz
0.0200333,-0.0092,-0.1326333
0.05335,-0.02835,0.0974
-0.02855,-0.01535,0.2135
-0.0456,0.0238,0.09935
5e-05,0.0247,-0.09245
0.0451,-0.02175,-0.12645
0.0332,0.00965,0.04505
0.0259,0.04735,0.1197
-0.0435,0.0132,0.04595
-0.0956,0.01995,0.0059
-0.06065,-0.0329,0.0366
0.0404,-0.0681,0.0933
0.0877,-0.02395,0.0575
0.0548,0.01365,-0.02375
-0.00655,-0.00175,-0.004
-0.04785,-0.02205,0.03725
-0.06335,-0.0058,0.023
-0.0157,-0.03705,-0.0152
0.02615,-0.03925,-0.00535
0.01805,0.0116,0.0119
0.0267,-0.03055,0.09155
0.02455,0.00565,0.05385
0.02935,0.07635,-0.03515
0.0241,0.0432,-0.0831
0.0307,-0.00185,-0.0551
0.04525,-0.04055,0.067
0.03915,-0.0577,0.1626
0.02365,0.00485,0.0786
-0.04795,0.0709,-0.0053
-0.0367,0.0225,-0.13515
0.0161,-0.02765,-0.01895
0.04395,-0.07345,0.12525
0.02335,-0.0321,0.1182
-0.0596667,0.0159333,-0.0205333
-0.0419,0.0105,-0.0421
0.04415,-0.0322,0.02085
0.035,-0.00395,0.0719
0.1061,-0.01045,0.0449
-0.0191,-0.0174,0.03445
-0.02335,-0.02845,0.07285
-0.0041,-0.0106,0.0491
-0.0009,0.0196333,0.0102333
0.02345,0.04385,-0.02065
0.00875,0.02835,0.02375
0.0328,-0.0221,0.0482
0.008,-0.0644667,0.0548
-0.0105,-0.072,0.05
-0.0042,-0.05065,-0.0021
0.0341,-0.027,0.0049
0.0186333,-0.0228667,0.0107667
0.0018,-0.0387,0.0848
-0.0202667,0.0254667,0.0513
-0.0736,0.07435,0.10175
-0.05615,0.01755,0.22105
0.0082,0.0507,0.09765
0.052,0.0962,-0.0011
0.0571333,0.0577,-0.104
0.04255,-0.00725,-0.0707
0.029,-0.01665,0.06355
0.04425,-0.06,0.1035
0.0439,0.00525,0.1203
0.0113,0.04005,0.15715
-0.05125,0.02795,0.1049
-0.0499,0.02545,0.05085
-0.0429,-0.0054,0.02945
0.0351,-0.0804,0.0291
0.0268,-0.0715667,0.0265
0.0041,-0.02665,0.0341
0.09955,-0.01515,0.08855
0.05275,0.07155,-0.02575
-0.0897,0.1543,-0.0641
-0.1405667,0.0833333,0.0563667
-0.06015,-0.0356,0.14885
0.06135,0.00275,0.14865
0.0938,0.03815,-0.0287
0.03095,0.0133,-0.10165
-0.0036,-0.034,-0.0254
-0.01385,-0.15085,-0.01745
-0.03325,-0.2368,-0.03135
-0.043,-0.2926,-0.08875
0.06395,-0.19925,-0.09065
0.1278,-0.09855,0.0392
0.07745,0.02,0.1306
-0.03915,0.1193,0.0689
-0.0565,0.1802,-0.0135
-0.0071,0.1465,0.0627
0.01075,0.10765,0.1524
-0.101,0.1262333,0.1532667
-0.1246,0.10725,0.1249
-0.0615,0.0783,0.0756
-0.0571333,0.0732333,-0.0437333
-0.017,0.0081,-0.07395
0.00725,-0.09785,0.01205
0.09525,-0.1936,0.0084
0.2771,-0.14635,-0.06205
0.13905,-0.2194,-0.1376
0.06225,-0.0887,-0.0158
0.04305,0.0014,0.04015
-0.0069,-0.01375,0.0645
-0.01225,0.09215,0.0882
-0.02585,0.16085,0.06025
0.01995,0.2011,0.09935
0.04675,0.1023,0.11635
0.05515,0.07475,0.11115
0.0426,0.0002,0.0705
0.0342,-0.0299,0.0464
0.0389,-0.0386,0.03415
0.01025,0.0225,0.0456
-0.0103,-0.0153,0.03405
-0.0572,-0.016,0.01325
-0.0299,0.05835,-0.0093
0.013,0.0381,0.022
0.03985,-0.02745,-0.01245
0.0633,-0.042,-0.0837
0.0823,-0.02565,-0.0549
0.05645,-0.02205,0.0349
-0.06155,0.00125,0.05915
-0.129,-0.02365,-0.0239
-0.14885,-0.01875,-0.06835
-0.0905,0.00275,-0.09435
-0.02535,-0.02085,-0.10655
0.05765,-0.00935,-0.0516
0.07975,-0.01165,-0.02365
0.0826,-0.02965,-0.00135
0.0917,-0.05505,0.0164
0.0844,-0.06185,0.0322
0.072825,-0.03455,-0.047575
0.0644,0.09085,-0.1009
0.00275,0.03755,-0.10185
-0.04055,0.0004,-0.01425
-0.0486,0.01065,0.0282
-0.0493,0.015,0.09685
-0.07865,0.02275,0.14515
-0.07175,0.0249,0.12175
-0.0816,0.057,0.0627667
-0.0392,0.0176,0.0185
-0.0074,0.00755,0.00575
-0.0104,-0.0045,-0.0367
0.02575,-0.0436,-0.04165
0.00486,-0.01086,-0.01032
-0.01935,-0.03225,-0.0154
0.0134,-0.009,0.0569
0.0368,-0.027,0.0933
0.0779,-0.0214,0.0908
0.067425,0.003825,0.094325
0.0788,0.0324,0.0181
0.0432,0.0364333,-0.0236
0.0112,0.0212,0.0114
-0.01555,-0.002075,0.0019
-0.0319,-0.03235,0.00525
-0.0317,-0.0243,0.0264
-0.03635,-0.02245,0.0884
-0.0202,-0.0034,0.0715
-0.0226,0.0,0.0561667
-0.04755,0.00575,0.00325
-0.07005,-0.00445,-0.00555
-0.0221,-0.01075,0.0148
0.032,0.016,0.0787
0.0488667,0.0083,0.1413333
0.0501,0.01045,0.14945
0.03495,0.0114,0.08485
0.01545,0.00865,0.0114
-0.007,-0.01715,0.021375
0.0156,-0.0259,0.0068
0.0277,-0.02715,0.05425
0.03105,0.00375,0.03785
0.016175,0.01725,-0.0166
0.03505,-0.0057,0.0666
0.0298,0.007,0.0782
0.0112,0.04055,0.04155
-0.00785,0.0204,0.0217
-0.00555,-0.0214,-0.01285
0.00545,-0.03235,0.00055
0.014,-0.0299,0.028
0.0077,-0.03145,0.03485
-0.00535,-0.01895,0.00735
-0.00125,0.0029,-0.00285
-0.0057,-0.0133,0.00895
-0.00705,0.00955,0.0219
-0.0217,0.01025,-0.011
0.01305,0.00745,0.0086
0.0088,-0.00115,0.01605
-0.01625,-0.012,0.0077
0.0004667,-0.0156333,0.0764333
0.0239,0.02095,0.11865
0.0094,0.04095,0.07275
-0.01045,0.0243,-0.01525
-0.0035,0.00225,-0.02655
0.03295,-0.0277,-0.00845
0.0261,-0.042,0.0151
0.00605,-0.0389,0.00485
0.0084,0.0178333,-0.0409667
-5e-05,0.0027,-0.0078
0.0053,0.00185,0.06585
-0.0232,0.0087,0.0438
-0.0174667,-0.0025,-0.0001
0.02965,-0.01205,0.02805
0.03895,0.0098,0.07
0.02515,0.0314,0.04135
0.0171,0.0329,0.0099
0.0113333,0.0098333,0.0218667
-0.0128,-0.02085,-0.0042
0.003,-0.0191,-0.02355
0.00125,-0.02265,-0.0323
0.0107,-0.0049,0.0049
0.0081333,-0.018,0.0152667
-0.00655,-0.0317,0.0193
0.0011,-0.0143,0.00535
0.00235,0.00105,-0.01535
0.0069,0.0117,-0.0549
0.0234,0.00525,-0.0528
-0.02425,-0.00525,-0.054
-0.03085,-0.0129,-0.03865
0.01095,0.00475,0.0529
0.0373,0.02175,0.0763
0.0135,0.03045,0.07715
-0.00535,0.01855,-0.0053
-0.00875,-0.0033,-0.01065
-0.01585,-0.02575,0.00775
0.0062,-0.0402,0.04475
0.018175,0.01145,0.0424
-0.0277,0.0493,-0.05
0.0142,0.0085333,-0.0266
-0.0094,-0.028,0.0228
-0.01285,-0.0061,-0.0244
0.01565,-0.0062,-0.01995
0.02715,0.00205,0.0403
0.02055,0.0083,0.0471
0.02585,0.0122,0.0281
0.0328,-0.0195,0.02885
0.0094,-0.0236,0.0092
-0.0197,-0.0152,0.01015
-0.0319,0.0038,-0.0117
-0.0501,0.0087,-0.0282
0.0028,0.00105,-0.01065
0.0127333,-0.0191333,0.0332333
-0.00985,-0.012,0.09765
-0.00295,-0.0073,0.1106
-0.0022,0.02195,0.03875
0.018225,0.0122,-0.00185
-0.01365,-0.00345,-0.0481
0.01905,-0.02055,0.0118
0.01705,-0.031,0.08675
0.0104,-0.02705,0.08805
0.0278,0.00175,0.02305
0.0248,0.0303,-0.02895
-0.00065,0.02785,-0.0236
0.00065,-0.0277,0.0423
-0.0149,-0.01635,0.07445
-0.0113,-0.0102,0.0214
-0.01195,0.00705,0.02195
-0.00585,-0.00265,0.0529
-0.01235,0.00845,0.0504
0.00675,-0.005275,-0.0047
0.02205,-0.0106,0.05845
0.0274,0.012,0.10335
0.0048,0.0196,0.133
0.03435,-0.00255,0.08725
0.0119,0.00815,0.04895
-0.0035,-0.0147,0.0413
-0.0051,-0.017,0.02925
-0.01045,-0.0171,-0.00465
0.01,-0.0098,0.0038
0.0178,-0.0007333,-0.0025333
0.0219,0.0099,0.0188
-0.0125,0.00175,0.0428
-0.0163,0.00425,0.0469
-0.0159,0.018,0.0406
-0.0017667,0.0229333,0.0437333
0.03015,-0.0193,0.01485
0.0059,-0.0185,-0.02045
-0.03365,-0.0261,-0.0663
-0.0105,-0.025,-0.0162
0.0251333,-0.0251,0.0702667
0.0049,0.02145,0.1254
0.00595,0.03745,0.02435
-0.02125,0.0254,-0.03115
-0.0054,0.0073,-0.0218
0.008875,-0.030375,0.014675
-0.01385,0.02105,0.0368
-0.016,-0.0025,0.0155
0.0019333,0.0015333,0.0233333
0.0128,-0.00175,0.0621
-0.0039,0.0001,0.03
-0.0132,-0.0116,-0.0279333
0.04725,-0.00885,0.018
0.0418,0.00585,0.0582
0.032,0.0052,0.0448
0.0068,0.0080667,0.0183
0.0088,0.0018,0.0246
-0.0013,-0.00855,0.01105
0.0149,-0.03095,0.01385
0.006,-0.0194,0.0091
-0.0256667,-0.0147,0.0076667
0.01895,0.0112,0.0186
0.0171,0.00565,0.0466
-0.00415,0.0022,0.04605
-0.011,0.0044,0.0398
0.01,0.009,0.0338667
0.0211,0.0135,0.0061
0.0236,-0.0002,-0.00465
-0.0309,-0.0204,-0.0177333
-0.02815,-0.02835,0.016
0.019825,0.00055,0.070425
-0.02515,0.02215,0.04625
-0.00535,0.00805,-0.02095
-0.0122,0.008,-0.0562
-0.00155,-0.01,-0.05115
0.0129333,-0.0361667,-0.0043333
0.03435,-0.0177,0.02175
0.01895,-0.0143,-0.0031
0.0103,0.01315,-0.01265
0.0037,0.0139,0.0119
-0.0061,0.0055333,-0.0013
0.0008,0.0101,-0.05495
0.02385,0.0154,0.00705
0.0207,0.0139,0.0551
0.0162,0.0145,0.05255
0.0005,0.0176,0.0196
-0.00395,0.00475,0.0071
-0.01215,-0.01845,0.00015
-0.00755,-0.0311,0.014
0.0006,-0.029,-0.02065
0.0101,-0.0013,-0.0208
-0.0178,-0.007,-0.00695
0.0077,-0.0003,0.03995
0.01295,0.0011,0.06975
-0.0026,0.01792,0.03186
0.0198,0.0129,0.0065
0.03895,-0.00895,0.01
0.00125,-0.02985,-0.0037
-0.0252,-0.0179,-0.0491
-0.0169,-0.02585,-0.02495
0.0171667,-0.0186667,0.0594
0.0122,0.025,0.0905
0.001,0.0276333,0.0580667
-0.0098,0.0045,0.0057
-0.0205333,-0.0102,-0.0247667
-0.01005,-0.03525,0.023
-0.00105,-0.0248,0.0193
0.00855,-0.01015,0.0082
0.0118,0.0058,0.0145
0.0074667,0.0191,0.0076667
0.0098,0.01835,0.06065
0.0049,0.00565,0.01615
0.01,0.014,-0.0307
0.0231,-0.0014,0.01335
0.0195,-0.0056,0.07245
0.01815,0.01155,0.0425
0.009,0.00705,0.02535
-0.0065,0.0003,-0.00125
-0.00785,-0.003275,0.016925
-0.0075,-0.00685,0.0188
-0.00055,-0.00035,0.01905
0.01805,0.0138,-0.02105
-0.0103,0.0042,-0.0112
-0.0134,0.005,0.0267333
0.00925,-0.0115,0.06115
-0.00355,0.0049,0.0485
-0.0072,0.0052,0.0092
-0.00155,-0.00505,0.01295
0.00285,0.0077,0.0172
0.03165,-0.00735,0.0377
0.01895,-0.01755,0.00675
-0.02305,0.00855,-0.0602
-0.00975,-0.00715,-0.05305
0.00725,-0.01865,0.0521
0.02145,0.0028,0.13465
-0.00255,0.0018,0.0674
-0.00495,0.01315,-0.00935
-0.0214,0.0119,-0.0398
-0.0144667,-0.0101333,-0.0118333
0.0051,-0.0297,0.02835
-0.00325,-0.01705,0.0158
0.0136,-0.0008,0.0163
-0.0057,-0.0002,-0.0047
0.00595,-0.0047,0.03085
0.004,0.0014,-0.0048
0.0144,0.0076333,-0.0352667
0.0238,0.0043,0.022
0.0386,0.0068,0.0481
0.023625,0.00845,0.073875
0.0196,0.00895,0.00845
-0.0041,-0.00035,-0.01365
-0.011,-0.017,-0.0221
-0.0125333,-0.0228667,0.0246667
-0.0145,-0.0053,0.024
0.0163,0.0039333,0.0221333
0.00755,0.006,-0.0157
-0.01735,0.0073,0.05615
-0.0179,0.003,0.11695
0.001,-0.0029,0.1123
-0.0059333,0.0251667,0.0346333
0.0131,-0.00495,0.00235
0.013,-0.0143,0.03055
0.01235,-0.0133,0.02425
0.03585,-0.0318,0.0502
0.01235,-0.01165,-0.00765
-0.0215,-0.0051,-0.0705
0.00325,-0.0152,-0.0175
0.0364,-0.0062,0.0731
0.0262333,0.0059333,0.1384667
0.0066,0.0436,0.03915
-0.012,0.02785,-0.0154
-0.0295,-0.00725,-0.01615
-0.0059,-0.0311,0.00575
0.0124,-0.0369,0.0139
0.0139333,-0.0220667,0.0167333
0.0005,-0.0027,-0.0142
0.00265,-0.0005,0.034
-0.00095,0.0107,0.06165
-0.016,0.00125,-0.0043
0.03245,-0.00205,-0.00905
0.03445,0.0042,0.0506
0.0156,0.02175,0.0636
0.0133,0.024,0.05745
-0.0082,0.0177,0.0438
0.0062667,-0.0032667,0.0188
-0.0087,-0.01325,-0.00065
0.0005,-0.02815,0.01055
0.00735,-0.0381,0.00495
0.01495,-0.0187,-0.0077
-0.02405,0.00255,-0.0327
-0.03115,0.0068,0.0161
0.0098,-0.0012,0.04885
-0.0061,0.01425,0.05245
-0.0037,0.0294,0.0327
-0.0017333,0.0072667,0.0273333
0.0066,0.0066,0.0263667
0.03065,-0.01,0.02335
0.0195,-0.021,-0.0084
-0.0138667,-0.0229,-0.0347333
0.00245,-0.0329,0.01085
0.03875,0.0014,0.0842
0.02445,0.03115,0.0628
0.0216,0.0153,0.0508
-0.0049,-0.0109,0.0146
-0.006425,-0.0036,-0.020075
0.01305,-0.03635,0.00155
0.0069,-0.02325,0.0149
0.01075,-0.01185,0.0007
0.0078,0.0112,-0.0258
0.0045333,0.0207333,-0.0126
-0.0054,0.01645,0.0335
-0.01565,0.0051,-0.01405
0.006,0.00095,-0.04555
0.01095,0.00675,0.041275
-0.0071,0.0135,0.0514
-0.0028,0.0016333,0.0041
0.00635,-0.0023,0.00175
0.00745,-0.0246,0.011825
0.0007,-0.0189,-0.00215
0.01625,-0.0088,-0.01255
-0.02295,0.00795,-0.0282
-0.00665,-0.00285,0.025525
0.00475,0.0128,0.05765
-0.0036,0.01275,0.0223
-0.0064,0.0095,0.01985
0.005475,0.002375,0.013525
0.0331,-0.0204,0.0119
-0.01385,-0.02545,-0.02745
-0.0199,-0.02915,-0.04525
0.02575,-0.01575,0.02755
0.0124,0.0202,0.0991
0.00905,0.0295,0.08095
-0.0078,0.0178,0.0159
-0.0161,-0.00415,-0.01105
-0.00875,-0.0251,0.00685
0.0033,-0.02105,0.0268
0.0111,0.01075,0.0262
0.01985,0.0099,0.0092
0.00705,0.0147,0.0058
0.003,0.0113,0.0248
0.0044,-0.0064667,0.0558667
-0.00385,-0.01345,0.0113
0.0170667,0.0057,-0.0116667
0.018,0.0175,0.0368
0.0197,0.0061,0.0729
0.0119667,0.0039,0.0616333
-0.0008,-0.0041,0.0054667
-0.01625,-0.0131,-0.00185
-0.0172,-0.0143,0.0225
-0.00315,-0.01455,0.0194
0.0009667,-0.0058,0.0101
0.0161,0.0054,-0.00665
-0.0036,-0.00095,-0.013
-0.0242,-0.0033,0.0245
-0.0057,-0.0207,0.0366
0.0059,-0.0020667,0.0573
-0.00575,0.027,0.0086
0.0107,0.00345,0.01575
0.01055,0.0045,0.03455
0.02555,-0.00455,0.01955
0.0647,-0.0233,0.0308
-0.0165,-0.0054333,-0.0309667
-0.0009,-0.0208,-0.06075
0.0428,-0.02125,0.04295
0.0152,0.0195,0.10395
-0.00155,0.01465,0.08915
0.0006,0.01475,0.00255
-0.01625,-0.0019,-0.02335
-0.0073,-0.03,-0.01245
0.0007,-0.0317,0.0135
0.0077,-0.0027333,0.0170667
0.01505,0.00605,0.00545
0.0119,0.016,0.00795
0.0117,0.01135,0.0285
-0.0153,-0.0016,0.0574
-0.0165333,-0.0029,-0.0034667
0.01775,-0.0034,-0.0309
0.03225,-0.01545,0.05665
0.0206,0.0086,0.0686
0.00305,0.01685,0.03845
-0.01245,0.0128,0.0021
0.00875,-0.00715,0.0
-0.0135,-0.03485,0.01655
-0.01395,-0.01695,0.0156
0.00945,-0.014,0.0046
0.0088,0.006,-0.0066
0.0107667,0.0011667,0.0154
-0.01085,0.00685,0.00635
-0.0296,-0.00225,0.01965
-0.0077,0.0028,0.038
0.0064,0.00585,0.04385
0.0162,0.02285,0.0288
0.0147,0.0136333,-0.0133
0.0089,-0.0161,0.0333
0.0135,-0.00125,0.0536
0.02165,-5e-05,0.02105
0.0169,-0.0153,0.0046333
-0.03855,-0.01175,-0.0549
0.00055,-0.0175,-0.0557
0.0081,-0.0002,0.0321
0.0199,0.0013,0.0843
0.0227333,0.0146,0.0931
-0.0137,0.02645,-0.0087
-0.0361,0.0105,-0.0201
-0.02525,-0.01555,-0.00835
-0.0285,-0.0172,0.0345
0.00825,-0.017225,0.026325
0.0138,-0.0036,0.00945
0.009,-0.0062,0.01555
0.0328,-0.0123,0.0856
-0.0010333,0.0006667,0.0651333
0.01495,0.00115,-0.0182
0.0282,0.00345,0.0068
0.0333,0.01025,0.0765
0.02625,5e-05,0.08515
0.0048,-0.0039,0.0569
-0.0055,0.0095,0.0215333
-0.0094,-0.0137,0.0207
-0.00305,-0.0201,0.0089
0.00905,-0.01685,0.01395
0.0076,-0.005,-0.009
0.01195,0.0021,0.0091
0.00025,-0.00285,0.03315
-0.01725,0.0014,0.05865
-0.0234,-0.0112,0.0351
-0.0004,0.0048,-0.0022
0.0105,0.0099,0.00325
0.00815,-0.0048,0.0419
0.01685,-0.00285,0.03705
-0.0042,-0.00025,0.0235
-0.00295,-0.00715,0.0154
-0.00505,-0.0117,0.02745
0.01825,-0.00635,0.02395
0.03645,-0.00705,0.0097
-0.00165,-0.00265,0.00155
-0.0217,-0.0109,-0.0581
-0.012,-0.01985,-0.0338
0.0097,0.0062,0.0771
0.0149,0.0272,0.1152
0.00175,0.0389,0.058
-0.0218,0.0233,-0.00395
-0.0264,-0.00875,-0.0213
-0.00825,-0.0337,0.0113
0.0199,-0.0322667,0.0170333
0.0219,-0.0393,0.001
0.0163333,-0.0055,-0.0034333
0.01205,0.00395,0.01995
0.0015,0.0085,0.04175
0.003,0.01015,-0.01905
0.0232,0.0272,-0.053
0.0075667,0.0145333,0.0187
0.01795,-0.0092,0.0753
0.0123,0.0042,0.0333
-0.0015,-0.01355,0.0033
-0.0121,-0.0074,-0.0091
-0.0117,-0.0234667,-0.0030667
-0.00045,-0.019,-0.01085
0.0057,-0.0118,-0.00575
0.01175,0.0079,-0.0037
0.0128,0.0115,-0.0057
-0.0007,0.0067,0.0112
-0.00965,-0.003475,0.021875
0.0089,0.01465,-0.00145
0.0081,-0.0044,0.02005
0.0184,-0.0093,0.035
0.0219,0.00695,0.04395
0.0011333,0.0053333,0.0064
0.00605,-0.01095,0.01615
0.0266,-0.01305,0.016
0.0229,-0.019,0.02355
0.025,-0.0161,0.0266
-0.0329,-0.0129333,-0.0297
-0.01925,-0.01215,-0.0422
0.02815,-0.00675,0.0396
-0.0013,0.0223,0.1057
0.00535,0.03785,0.08385
-0.00995,0.02385,0.01925
-0.0377,-0.00325,-0.0133
-0.0116,-0.02375,0.00305
-0.00155,-0.025,-0.0076
0.0139,-0.01675,0.0055
0.01505,-0.0205,-0.00145
0.0099,0.0037,-0.00045
0.022,-0.0024,0.0141
-0.0026,0.0113,0.06545
-0.01195,0.0143,-0.0033
0.00075,0.0123,-0.0326
0.0124,-0.00615,0.0311
0.02115,-0.00185,0.1047
-0.00505,0.0267,0.06855
-0.01085,0.00205,-0.0013
-0.0211,-0.019,-0.00045
0.00295,-0.0105,0.02955
0.0043,-0.0136,0.0174
0.0092333,0.0057,0.0045
-0.0063,-0.0003,-0.0019
-0.0067667,-0.0022333,0.0162667
-0.0138,-0.002,0.0318
-0.0115,-0.0014333,0.0090667
0.0032,0.00865,0.0215
0.0079,0.0014,0.0455
0.0163667,0.0047,0.0337333
0.00705,0.00245,0.0092
0.00825,0.0013,0.0016
0.0132,-0.0121,0.04015
0.0118,0.0011,0.0021
0.0277667,-0.0070333,0.0282
-0.02165,-0.01605,-0.0146
-0.027,-0.0035,-0.08055
0.00755,-0.01145,-0.00195
0.0161333,0.0045667,0.1019
0.0028,0.0251333,0.0698
-0.0146,0.0289,-0.0165
-0.0259,-0.0225,0.0425
-0.0171,-0.0268,0.0733
0.0038333,-0.0213,0.0665333
0.0273,-0.0029,0.0072
0.01615,-0.0038,-0.01115
0.02665,-0.0207,0.01145
0.0172,-0.0102,0.0353
-0.0060333,0.0023,0.0167333
-0.005,0.00825,-0.02765
0.0106,0.02185,0.0343
0.0278,0.02805,0.0648
0.0188,0.0432,0.0522
0.0216,0.0092,0.0324
-0.00445,-0.0015,0.0154
-0.01415,-0.02355,0.0145
0.0068,-0.0322,0.01065
0.00085,-0.01725,0.0022
0.0008,-0.0201,0.0107
0.00765,0.0067,0.0263
-0.0068,-0.0093,-0.0056
-0.01385,-0.00265,-0.0185
-0.00175,-0.0004,0.0088
0.00805,0.0047,0.0622
0.0082,0.0233,0.0383
0.01315,0.01375,0.0313
0.00485,0.0,0.0048
0.01765,-0.00835,0.0243
0.03215,0.005,0.0154
0.00725,-0.016,0.01985
-0.0338,-0.0209,-0.0483333
-0.0121,-0.0326,-0.0189
0.01685,-0.01325,0.03995
0.0142,0.0202,0.1006333
-0.0087,0.01235,0.0388
-0.01135,0.01385,-0.0085
-0.01255,-0.0189,-0.0121
0.0074,-0.035,0.0088
0.0155,-0.03165,-0.00285
0.0066,-0.00215,0.02015
0.00145,0.0045,0.0073
0.0066,0.0006,0.00965
0.0125,0.0048,0.0307
0.0190667,-0.0028,0.0525667
-0.0007,0.0077,-0.0339
0.0288,0.0064,-0.0024667
0.01065,0.0122,0.0761
0.0048,0.0002,0.0799
-0.0058667,0.0104667,0.0269333
-0.0101,-0.01535,0.0043
0.00015,-0.01505,0.0089
-0.00265,-0.02615,0.02015
-0.0036,-0.0357,0.0034
0.0042667,-0.0176,-0.0187
0.01445,-0.01015,-0.05085
-0.00605,-0.01045,-0.0245
-0.01115,-0.01705,0.03655
0.0037,0.0061,0.05075
0.0006,0.0264,0.0242
-0.0075333,0.0237,-0.0007333
-0.00295,0.0039,0.00605
0.0166,0.0072,0.01405
0.0441,-0.0222,0.01775
-0.02195,-0.0246,-0.02155
-0.0112,-0.0222,-0.0543
-0.0007,-0.02425,0.01145
0.02175,0.01255,0.08615
0.02515,0.029,0.0775
-0.0075,0.02355,0.0171
-0.0314,0.00605,-0.02265
-0.01305,-0.0356,-0.0131
0.01025,-0.0301,0.00635
0.02525,-0.01985,0.00915
0.0086,-5e-05,-0.00245
0.017,0.00815,-0.0065
0.0072,0.0178,0.00865
-0.00125,0.0171,0.0518
-0.00415,0.00795,0.0455
0.0097,0.00215,-0.02505
0.0185,-0.0039667,0.0136333
0.01125,0.00045,0.05315
0.00245,0.0044,0.04005
0.0123,0.0034,0.0208
-0.0007,-0.0127667,-0.0102
-0.00135,-0.02985,-0.0041
-0.0151,-0.00935,0.0253
0.0081,0.0088,0.0033
0.0094667,0.0033,-0.0129333
0.0225,-0.0029,-0.026
-0.0053,0.00425,0.02105
-0.0116333,0.0052667,0.0485667
-0.0008,0.0064,0.04455
-0.0168,0.0089,0.02585
0.0073,0.0241,0.0187
0.0169,0.0074667,0.0188333
0.0314,-0.00355,0.03705
0.0126,-0.0281,0.0048
-0.01795,-0.02655,-0.0596
0.0067,-0.02955,-0.03265
0.02275,0.00245,0.0537
0.0175,0.00075,0.11385
0.0096,0.0164,0.0834
-0.0226,0.0361,-0.00595
-0.0279,0.00525,-0.0259
-0.0214,-0.0201,0.01145
-0.0071,-0.0187,0.03045
0.02655,-0.0124,0.01415
0.00245,-0.00585,0.01785
0.0282,0.0086,-0.004
0.0020333,0.0001,0.0500667
-0.01775,0.0131,0.02975
0.0054,0.0251,-0.03055
0.02395,0.0013,0.01735
0.03095,0.0046,0.1118
0.01485,0.02005,0.13315
0.01665,0.02325,0.0635
-0.00455,-0.0049,0.01185
-0.0046,-0.02745,-0.00685
0.0048,-0.03445,0.02685
0.00835,-0.02325,0.01275
0.0076,-0.00675,-0.00625
0.00975,0.01485,-0.0124
-0.00545,0.0158,0.03555
0.01895,0.01475,0.082
-0.0015,0.01885,0.06035
-0.02555,0.0157,0.02055
-0.0109,0.01615,0.01175
-0.0003,0.0167,0.02105
0.0168,-0.0131,0.0071
0.04565,-0.026,0.00255
-0.0275667,-0.0318,-0.0463333
0.005,-0.0324,-0.02025
0.0257,-0.0112,0.0518
0.02065,0.0083,0.11335
0.0043333,0.0380333,0.0672333
-0.02765,0.02485,-0.03695
-0.0153,0.0015,-0.0401
0.00475,-0.02975,-0.01235
0.0190667,-0.0344333,0.0137667
0.0178,-0.01795,-0.00245
0.0069,0.00595,-0.0054
0.0052,-0.0116,-0.01425
-0.0026,0.00345,0.0484
-0.0049,-0.0015,0.0232
-0.0123,-0.009,-0.0282
0.02885,-0.01455,0.0048
0.0209,0.0072,0.07065
0.02085,0.02475,0.04925
-0.00445,0.0121,0.01565
-0.012,-0.0045,0.0056
-0.0139333,-0.0176,0.0191
0.0067,-0.01825,-0.0045
0.0071,0.0032,-0.0219
0.0002333,-0.0014667,-0.0393667
0.0104,-0.00405,0.03565
0.01195,-0.0002,0.07095
-0.00225,0.00475,0.0394
0.0044,0.0044,0.0098
-0.0057333,0.0063667,-0.0040667
0.0083,0.00175,-0.0064
0.0211,-0.00405,-0.00115
-0.0282,-0.01525,-0.0462
-0.0199,-0.0272,-0.0758
-0.0084,-0.0059,-0.0202
0.0272,0.0018333,0.0882
0.0231,0.03895,0.09055
-0.00355,0.03215,0.01795
-0.01305,-0.00615,-0.01245
-0.0102,-0.04685,-0.0119
0.00545,-0.0409,0.00485
0.0234,-0.01645,0.00405
0.0255,0.0051,-0.00445
0.01755,0.0128,-0.0158
0.00705,0.0231,0.027
0.0044,0.01735,0.0547
-0.00955,0.0054,0.03005
0.00695,0.01225,-0.0228
0.01755,0.0071,0.0183
0.01675,-0.00125,0.06545
0.0044,0.003,0.0444667
-0.00125,-0.0126,-0.0101
0.0,-0.0152,-0.00775
-0.0039,-0.0137,-0.0039
-0.0061333,-0.0207667,-0.0026
0.0075,-0.0093,0.0105
0.0065,-0.0007,0.0234
0.00335,0.0035,-0.0008
-0.0035,0.0126,0.0026
-0.0049667,0.0017,0.0394667
0.0119,0.0227,0.0589
-0.00745,0.0094,0.0537
-0.0219,0.0106,0.05935
-0.0036,-0.00185,0.03055
0.0277,-0.00415,0.0058
0.04795,-0.0085,0.0151
0.0117,-0.0303,0.0088
-0.0163667,-0.0281667,-0.0610667
0.00625,-0.02735,-0.00755
0.02735,-0.0038,0.0798
0.02335,0.0124,0.1209
-0.00135,0.0231,0.05095
-0.016,0.02285,-0.0024
-0.02875,0.0201,-0.02745
-0.00845,-0.02845,0.01575
0.0,-0.0209,0.035
0.01225,0.0092,0.02735
0.00905,0.01985,0.0075
0.00355,0.0128,0.0137
-0.01525,-0.0035,0.067
-0.0323,-0.0131,0.03455
-0.0001,0.01085,-0.0106
0.03715,-0.00465,0.0144
0.01695,-0.0027,0.06845
0.0117,-0.0054,0.0564
0.00215,0.00785,0.02385
-0.00445,-0.00615,-0.0047
-0.00035,-0.0194,-0.01085
0.00415,-0.01745,0.0092
-0.0064,5e-05,0.02505
0.0264,0.01085,0.05335
0.0186,0.00555,0.076
-0.0011,0.03,0.06555
-0.01625,0.014,0.0883
0.00255,0.00815,0.0927
0.01585,-0.0056,0.02975
-0.0099,-0.0103,0.0044
0.01085,-0.018,0.01475
0.0088,-0.0049,0.0399
0.0058,0.00375,0.01585
0.02615,-0.0043,0.02205
-0.0298,-0.0007333,-0.0305333
-0.00975,0.0001,-0.019
0.0282,0.0172,0.0569
0.0261,0.0212,0.1311
0.006,0.0304333,0.0743
-0.00805,0.01735,-0.0362
-0.00255,-0.01385,-0.0388
-0.0067,-0.0478,-0.0309
0.0088,-0.0531333,0.0122333
-0.00235,-0.02575,0.0214
0.01125,0.00375,0.01215
0.02085,0.01485,0.01385
0.0199,0.0148,0.0695
0.01235,0.01745,0.0442
-0.00715,-0.0034,-0.02175
0.0184667,-0.0025,-0.0014667
0.02575,0.00565,0.08115
0.0117,0.0147,0.046725
0.00345,0.0071,0.01375
-0.0074,-0.02395,0.00945
0.0072,-0.04425,0.01
-0.00605,-0.02565,0.0138
0.0076,-0.01005,-0.0277
0.00805,0.0165,-0.0465
-0.01045,0.009,-0.00725
-0.0048,-0.00885,0.06195
0.0054,0.00525,0.08045
-0.0043,0.0155,0.0479
0.00845,0.0178,0.0234
0.00745,0.01565,0.05185
0.01055,0.00985,0.0317
0.0294,0.00245,0.03525
-0.0212,-0.02065,-0.02145
-0.01615,-0.042,-0.06195
0.00705,-0.029,0.0149
0.02585,0.0024,0.0836
0.0203,0.0142,0.09965
0.00635,0.0127,0.0384
-0.0083,0.0015,0.0086
-0.0162,-0.00755,0.00595
0.00385,0.0002,0.0319
0.0237,-0.01825,0.01705
0.0181,-0.00405,-0.0127
0.0014,0.0143,-0.02905
0.0104,0.01195,0.0006
0.0036,-0.01305,0.03855
-0.0095,-0.0078,-0.0153
0.0007333,-0.0069667,-0.0361333
0.0134,-0.0002,0.0234
0.00875,-0.0082,0.058
-0.0061667,0.0182,0.0279667
0.0014,0.0074,0.01205
0.00575,-0.0108,0.0235
0.002,-0.0109,0.018
0.0022333,-0.0100667,-0.0023
0.0065,-0.0077,-0.00655
0.0107,-0.0174,0.006
-0.0106,-0.0058333,-0.0168333
0.0002,0.0032,0.01625
0.01295,0.00245,0.04025
0.0049,0.01215,0.038
-0.02125,0.01425,0.0172
0.0017,0.0251,-0.0053
0.0122333,0.0024333,0.004
0.0292,-0.01415,0.0281
0.00685,-0.0201,0.0306
-0.03255,-0.03195,-0.044
-0.00625,-0.01815,-0.0269
0.01,0.00015,0.04465
0.00065,0.0275,0.0934
0.00725,0.01185,0.0501
-0.01225,0.0134,-0.003
0.00205,0.002,0.00435
0.00705,-0.01875,0.00645
0.01685,-0.00215,0.0064
-0.0029,-0.0034,0.00505
0.0096,0.00715,-0.00455
0.0089,0.0091,-0.01565
0.0095,0.00875,0.0452
0.0096,-0.00055,0.0605
0.0052,0.00375,-0.0198
0.0012,0.01525,-0.04505
0.01725,0.0006,0.01
-0.0024,-0.0127,0.066
-0.00965,-0.0173,0.0505
-0.00675,0.016,0.0207
-0.0073,0.00235,-0.004
-0.01285,-0.0079,0.0187
-0.0062,-0.001,0.02205
-0.003,-0.0074,0.02435
0.0216,-0.00445,0.0078
-0.00075,0.0013,-0.0153
-0.0198,0.00915,0.0122
-0.021,0.0009,0.036
0.0131,0.00735,0.054
0.0008,0.00725,0.0298
-0.0005,0.0078,0.0105
0.0222,0.00545,0.0319
0.0301,0.0016,0.0293667
0.0272,-0.0214,0.0195
-0.01295,0.0008,-0.00785
-0.02,-0.0142667,-0.0627667
0.00705,-0.0174,0.02805
0.01575,0.01045,0.1159
0.024,-0.003,0.1118
0.0040333,0.0361333,0.0642667
-0.0194,0.02545,0.07715
-0.0335,0.0002,0.08965
-0.00965,0.0074,0.0592
0.00475,-0.0117,0.0333
0.02505,-0.0244,-0.01305
0.01555,-0.02745,-0.0145
0.0289,-0.0231,0.025
-0.0058333,-0.0147667,0.0224333
-0.0101,0.00865,-0.03315
0.02775,0.013,-0.0116
0.03545,0.0092,0.07955
0.0354,0.0064,0.0907
0.0252,0.0250333,0.0816333
0.00965,0.01805,0.01605
-0.0169,0.0123,-0.0055
-0.0096,-0.03245,0.0068
-0.002,-0.04,0.0131
0.0103,-0.0422,-0.0341
0.00945,-0.0212,-0.04385
0.00555,-0.0116,-0.0279
-0.0149,-0.0142,0.0128
0.0113,0.0027,0.0616
0.0072333,0.0115,0.0590667
-0.00475,0.02595,0.0147
0.00985,0.01785,-0.00565
0.00325,-0.004,0.01855
0.0244,-0.00495,0.00445
0.0471,-0.03465,0.016
-0.0058,-0.03,-0.0349
-0.0021,-0.03465,-0.03795
0.02965,-0.02115,0.02225
0.0203,0.01905,0.0651
-0.0057,0.02105,0.0793
-0.00865,0.0172,0.0052
-0.0187,0.01085,-0.0215
-0.01575,-0.01035,0.0059
0.0064,-0.0226,0.03005
0.0148,0.0009,0.01425
0.00565,0.002,-0.0057
0.0214,-0.00115,-0.01585
0.00345,-0.00245,0.0233
0.0061,-0.01815,0.07515
0.0077,0.0001667,-0.0085333
0.0097,0.0214,-0.0299
0.036,0.00295,0.01945
0.0275667,0.0049333,0.0549667
0.0072,0.0194,0.0241
-0.0143,0.01335,0.02705
-0.0090667,-0.0118,0.0067333
-0.0112,-0.0227,0.0075
-0.0038,-0.0256333,-0.0225667
-0.00345,-0.0332,-0.06135
0.00815,-0.00975,-0.05055
-0.0202,-0.0147,-0.0562
-0.0128,-0.0085333,-0.0199
-0.0019,0.0037,0.04125
0.00795,0.02515,0.0475
-0.0007,0.0212,0.03355
-0.0077,0.0092,0.009
-0.00405,-0.00665,0.00965
0.0416,-0.01445,0.01245
0.0473,-0.0273,0.0127
-0.0230667,-0.0283667,-0.0269
-0.00785,-0.0348,-0.02795
0.0114,-0.0061,0.0341
0.0247,0.034,0.0751
0.01425,0.03255,0.0496
-0.0343,0.01285,0.0071
-0.01425,-0.00995,-0.003
-0.01165,-0.0106,0.00875
0.0161,-0.0152,0.0296
0.0167,-0.0037,0.01035
0.0131,0.0076,-0.00885
0.01475,0.0026,-0.0115
0.0046,0.0011,0.0484
0.01195,-0.0063,0.04475
0.00825,-0.02555,0.00465
-0.001,0.00685,-0.02415
0.018,0.01005,0.0031
0.01,0.005,0.0655
0.00085,0.00645,0.03535
0.0086,0.0077,0.0026
0.00765,-0.0029,0.00495
0.00055,-0.0148,0.0218
-0.00505,-0.00985,0.01815
-0.00375,-0.0108,0.0034
0.00025,-0.0094,0.00525
0.00555,5e-05,-0.015
-0.0273,0.0014,-0.0083
-0.0202,-0.00565,0.0199
0.0045,-0.0092,0.04635
0.0114,0.01275,0.0367
0.00495,0.02515,0.03185
0.0084333,0.0195667,0.0194
0.0145,0.0057,-0.0019
0.03485,-0.00245,0.02
0.02435,-0.01365,0.02125
-0.0137667,-0.0084667,-0.0653667
0.02165,-0.0153,0.01375
0.01325,0.00745,0.08685
0.006,0.0119,0.1043
-0.00275,0.0162,0.0514
-0.016,0.0229,0.0095
-0.0168,0.0109,0.0043333
-0.0022,-0.0214,0.0117
-0.0046,-0.0220667,0.0280667
0.00475,-0.0024,0.0266
0.00785,-0.01225,-0.02135
0.0097,0.00365,0.02765
-0.0068,-0.00815,0.05415
-0.01805,0.0064,0.02255
-0.0042,0.0091,-0.0432
0.027,0.0055,-0.0082
0.0259,0.0015333,0.0473
0.0303,0.0034,0.06965
0.015,0.02355,0.04205
-0.01245,0.01085,0.00945
-0.00465,-0.0082,0.00935
-0.00955,-0.00505,0.0237
0.00265,-0.01585,0.05365
0.00935,0.00375,0.04845
0.0056,-0.00725,0.07945
-0.0106,-0.00135,0.0603
-0.0153,0.0091,0.04975
-0.00215,-0.00325,0.04235
0.02665,-0.00695,0.0246
-0.0045,-0.01035,0.0069
0.0018,-0.00675,0.00195
0.0021,0.0079,0.03745
0.0256,0.01475,0.0085
0.02225,0.00175,0.0373
-0.02405,0.00375,-0.0127
-0.0059,0.003,-0.0505
0.00845,-0.00145,0.01285
0.0138,0.0176,0.10815
0.02985,0.0179,0.08375
-0.00295,0.0213,0.01295
-0.033,-0.007,-0.04245
-0.0136,-0.03075,-0.02355
0.00395,-0.0348,0.00455
0.0414,-0.03055,0.0079
0.01775,-0.01065,0.01425
0.00055,0.00305,-0.0142
0.00845,0.0187,0.03055
0.0089,0.0041,0.0643
0.0066,0.0009,-0.01245
0.02365,0.00755,-0.0174
0.0238333,0.0094,0.0325333
0.0155,0.0061,0.0586
-0.0038333,0.0067333,0.028
-0.0121,-0.00925,0.01725
-0.0099,-0.01945,0.0114
-0.01285,-0.0275,0.0168
-0.0061,-0.0313,0.012
0.00165,-0.00995,-0.0106
0.0005,0.0072,-0.057
-0.0017667,0.0062333,-0.0322667
-0.00035,-0.0043,0.0423
0.0204,0.0032,0.0782
0.0027,0.0251,0.0473
0.00935,0.01495,0.0172
0.0006,0.0163,0.0201333
0.01585,0.00765,0.0051
0.039,-0.02185,0.00055
-0.01495,-0.03705,-0.0308
-0.0001,-0.03035,-0.03015
0.01725,-0.02525,0.0109
0.0138,0.0192,0.07575
0.0124,0.0237,0.0518
-0.0066333,0.0106,-0.0126
-0.00965,-0.00445,-0.0497
0.00725,-0.0197,-0.0196
0.0092,-0.03395,0.0068
0.0095,-0.01,-0.01555
0.003,0.0189,-0.01575
-0.00065,0.01045,-0.02645
0.0025,0.0175,0.0039
-0.0036667,-0.0045333,0.0456667
-0.01705,-0.0052,-0.0031
-0.00515,0.00505,-0.035
0.03065,0.00685,0.0285
0.02255,0.0006,0.04795
-0.00175,0.0129,0.03425
-0.0009,-0.0192,0.0079
-0.01135,-0.01255,-0.0024
-0.00805,-0.025,0.01345
-0.00515,-0.00335,0.0322
-0.00025,0.00245,-0.00145
0.0042,0.00335,-0.0023
-0.00975,0.016,-0.0145
-0.0079,0.00875,0.04075
0.0278,0.0125,0.06715
-0.01395,0.00605,0.0484
-0.00685,0.0067,0.02695
-0.01175,0.0,0.007
0.0091,0.00175,0.00065
0.06,-0.02735,0.0092
0.00735,-0.03405,-0.00745
-0.0055,-0.0180667,-0.0344333
0.0134,-0.00065,0.01925
0.00425,0.0264,0.0792
0.02235,0.03125,0.07145
-0.0219,0.02515,0.01135
-0.02995,0.01645,-0.0132
-0.0123,-0.0177,0.00645
-0.0118,-0.0171,0.0079
0.015,-0.0222333,0.0108
0.0266,0.00485,0.00425
0.01045,-0.00315,-0.0162
0.0029,-0.00165,0.0271
0.0067,-0.00155,0.05805
-0.01885,0.00875,0.0096
-0.01285,0.0203,-0.03615
0.01465,0.0074,0.0103
0.01735,-0.00115,0.04995
0.01385,0.00925,0.0379
0.00555,0.00015,0.0368
-0.00115,0.00415,-0.0055
-0.00635,-0.00205,0.0088
-0.002,-0.00155,0.0191
-0.0058,-0.0024,0.00105
0.0054,-0.00545,0.0085
0.01175,-0.01295,-0.0035
-0.0247,-0.00225,0.00145
-0.0128,0.0096,0.0378
0.0096,0.00575,0.0562
-0.0048,0.0068,0.02355
0.00675,0.02175,0.00875
0.0073,0.00665,0.0125
0.01635,0.00065,0.012
0.04655,-0.0058,0.01115
0.0052,-0.0122,0.00645
-0.0182,-0.0051,-0.0305
-0.0227,-0.0103667,-0.0364
-0.0052,-0.0107,0.04195
0.01405,0.01325,0.0971
0.01165,0.00665,0.0684
-0.02545,0.0307,-0.00065
-0.01465,0.01565,-0.00975
-0.0227,-0.00765,0.0104
0.0054,-0.0196,0.02735
0.0036,-0.00465,0.02375
0.01815,-0.0047,-0.00075
0.02005,-0.0044,-0.0001
0.002,-0.00485,0.0324
-0.0084333,-0.0012333,0.0060667
0.0099,0.01355,-0.0353
0.02185,0.0,0.02725
0.0223,0.001,0.0693
0.0204,0.0022667,0.0602
0.00125,0.00605,0.03265
-0.00675,0.0052,0.01015
-0.0091,-0.0095,0.0161
-0.02455,-0.01665,0.017
0.0096333,0.0018333,0.0172
0.00475,0.00825,0.02325
0.00275,-0.0022,0.02075
-0.0117,-0.00495,0.03125
-0.00235,0.0023,0.0637
0.0138,-0.00185,0.0473
-0.0076,0.02135,0.0193
0.01365,0.00625,0.0014
0.02185,-0.00115,0.0197
0.00895,-0.00285,0.0223
0.04255,-0.00545,0.02355
0.00055,-0.00995,0.0323
-0.0235,-0.0029,-0.04905
-0.0064,-0.01,-0.02125
0.00925,0.0082,0.05215
0.01945,0.0292,0.1198
0.0047,0.0215,0.1207
-0.0131667,0.0161667,-0.0065333
-0.02825,-0.0021,-0.02595
-0.01485,-0.0283,-0.00445
0.01905,-0.0385,0.02235
0.01505,-0.0131,0.0031
0.01045,0.0003,0.01575
0.0157,0.01225,0.0045
0.0002,0.00945,0.0652
-0.01105,0.00825,0.0193
-0.01385,0.00945,-0.05635
0.03155,0.01055,-0.00465
0.0368,0.0131,0.07155
0.0224,0.01745,0.06325
-0.0038,0.0068,0.0297
-0.01245,-0.0011,0.0111
-0.00975,-0.02295,0.0162
-0.00255,-0.01205,0.00555
0.0066,-0.01465,-0.0022
0.0129,-0.0186,-0.0066
0.01775,-0.00495,-0.00035
-0.00295,0.0109,-0.03955
-0.0189,0.00985,-0.01075
0.01175,-0.00275,0.0556
0.0044,-0.0016,0.0707
-0.0065,0.02565,0.03105
-0.0051,0.01075,0.02095
0.01665,0.00685,0.03035
0.01565,-0.0083,0.0065
0.024,-0.0189,-0.0051
-0.0224667,-0.0354,-0.0546667
-0.0068,-0.03425,-0.03635
0.0084,-0.0078,0.052
0.0139,0.00335,0.06015
-0.0003,0.0367,0.0384333
-0.01855,0.0174,-0.0441
-0.0026,-0.00195,-0.02255
0.0102,-0.03765,-0.0007
-0.00525,-0.01315,0.0104
0.00765,-0.01685,-0.00295
-0.00415,0.0189,-0.022
0.00615,0.01175,-0.0177
0.0071,0.0109,0.0412
0.0048,0.00875,0.03265
0.003,0.006,-0.03275
0.0271,0.0074,-0.0252
0.01125,-0.00095,0.0398
0.0038,0.0125,0.0418
-0.0034,-0.00515,0.03215
-0.01495,-0.0051,-0.00175
-0.0124,-0.01785,0.0049
-0.00035,-0.0073,0.00625
0.017,-0.0073,-0.0219
0.00565,0.0014,5e-05
-0.0044,0.00375,0.00435
-0.0133,0.0121,0.0007
-0.01745,0.0138,-0.0046
-0.03455,0.019,0.0085
0.02465,-0.0045,0.04695
0.0245,0.0087,0.0452
-0.0017,-0.0012,0.01745
0.0155,0.0053,0.0122
0.0241,-0.01025,0.0221
0.02095,0.00075,-0.0069
0.0192,-0.01605,0.01125
-0.01085,-0.02395,-0.05565
-0.01085,-0.0177,-0.0449
0.01855,0.0046,0.00495
0.0056,0.03225,0.07805
-0.0101,0.0303,0.09585
0.002,0.02005,0.0319
-0.0177,0.0135,-0.0141
-0.0198,-0.00455,5e-05
0.00195,-0.03405,0.02235
-0.0011,-0.0086,0.01515
0.01145,0.0001,-0.0114
0.01755,0.00755,-0.00085
0.0158,0.0077,0.0284
-0.0058,-0.0031,0.0717
-0.0169,0.00625,0.008
0.0072,0.0155,-0.0417
0.0248667,-0.0021667,0.0258
0.0144,0.00095,0.0806
-0.0011,0.0095,0.0666
0.0001,0.01545,0.0244
-0.014,-0.0056333,-0.0011333
-0.0177,-0.01855,0.0256
0.00405,-0.00015,0.0326
-0.0016,-0.00695,-0.00615
0.0017,-0.0069,-0.0052
-0.0015,-0.0046,0.0179
-0.019,-0.00395,0.00825
-0.0141,0.00475,0.00565
-0.00645,-0.0003,0.05015
0.0285,0.00285,0.05615
0.0146,0.0105,0.0281
0.0004,0.0148,0.0089
0.0135,-0.0032,0.0243
0.0146,0.0031,0.0252
0.0378,-0.0112,0.0233
0.0223,-0.0056,0.0175
-0.0273333,-0.006,-0.0484
0.00445,-0.01345,-0.04445
0.0114,-0.012,0.0354
0.0256,0.00135,0.112
0.02455,0.03375,0.05525
-0.0278,0.0329,-0.0039
-0.0364,0.00345,-0.01275
-0.0151,-0.01375,0.00515
0.0075,-0.012,0.0401
0.01105,0.00955,0.0145
0.0098,0.0014,0.02205
0.0148,-0.0113,0.0162
0.01315,-0.00115,0.04925
-0.00205,0.0078,0.0516
-0.01415,0.0198,-0.01315
0.02645,0.00495,0.01085
0.04255,0.0144,0.06745
0.024,0.00835,0.0567
0.00385,0.0086,0.0364
-0.01875,-0.01375,0.01235
-0.00505,-0.0215,-0.003
-0.0131,-0.0127,0.01605
0.01805,-0.01305,0.0082
0.0149,0.00325,-0.0097
0.0015,0.00285,-0.00715
-0.02155,-5e-05,0.02295
-0.01815,0.007,0.04685
-0.006,0.00535,0.01285
-0.00395,0.012,0.0103
0.0176333,0.0073,0.0412667
0.02725,-0.0024,0.0226
0.0047,-0.0032,0.0131
-0.0134667,-0.0073,0.0021667
0.0008,-0.0179,0.0352
0.00335,-0.00145,0.02415
0.0357333,-0.0054667,0.0197667
-0.0057,-0.00325,-0.01445
-0.02735,-0.0286,-0.0671
0.00135,-0.0111,-0.0062
0.00455,0.006,0.0921
0.01365,0.03135,0.11465
0.00815,0.02925,0.04595
-0.0299,0.01905,-0.0094
-0.016,-0.01735,-0.02105
0.0018,-0.0282,0.00665
0.00925,-0.0379,0.01645
0.0195,-0.01295,0.0058
0.0205,-0.0114,-0.0154
0.0178,-0.0046667,-0.0208333
0.01085,0.004,0.0317
-0.01105,0.00795,0.019
-0.0056,0.00995,-0.01795
0.0187,0.00755,0.0158
0.03325,0.0083,0.0642
0.0105,0.0189,0.0739
0.00765,0.0235,0.03105
-0.01755,0.01635,-0.0109
-0.0031,-0.01705,0.0002
-0.0078,-0.03175,0.00165
0.0227,-0.0247,0.00345
-0.0099,-0.02205,-0.02015
0.0043,-0.01055,-0.03365
-0.0018,-0.00775,-0.03745
-0.0054,-0.0063,-0.02455
-0.0108,0.01055,0.0221
-0.0054,-0.0044,0.0522
-0.01745,0.02555,0.0233
-0.02155,0.0163,-0.01855
0.01305,0.00255,-0.0098
0.0235,-0.01095,-0.0318
0.02255,-0.0172,-0.03855
0.00075,-0.0326,-0.0357
-0.00475,-0.01405,-0.0355
0.00285,-0.0014,0.03565
0.00595,0.02565,0.1051
0.01745,0.0588,0.09365
-0.00555,0.0269,0.0414
-0.0248333,0.0038333,-0.0192667
-0.01245,-0.03305,0.01165
0.0039,-0.0425,-0.0081
0.0058333,-0.0212,-0.0114
0.0028,-0.0015,-0.0062
0.0136667,0.0004667,-0.0025333
0.01085,0.02415,0.0401
0.0011,0.0288,0.0678
-0.0051,0.0188,0.0757
-0.0057667,0.0289,0.0059
0.0183,0.02755,0.01155
0.0218,0.015,0.0693
0.0023,-0.0114,0.06535
-0.00825,-0.0066,0.03315
-0.01895,-0.00465,0.02095
-0.00135,-0.0073,0.0174
0.0095,-0.0015,0.01245
0.0072,0.00665,-0.0304
0.01455,0.00955,-0.00605
0.01145,-0.0065,0.0007
0.00775,-0.04595,0.00115
-0.01755,0.0061,0.0196
-0.0189,0.0287,0.0491
-0.0165,0.0185333,0.076
-0.02445,0.02465,0.0487
-0.02385,-0.00785,0.0242
0.00075,-0.024,0.0115
0.02,-0.0189,-0.02625
0.0423,-0.00275,-0.0113
0.0048,0.0076,-0.03455
-0.0186,-0.0133,-0.0469
-0.00565,-0.01095,0.01425
0.0077,0.0065,0.09455
0.0235,0.02665,0.1058
0.03455,0.0253,0.01825
-0.00215,0.00925,-0.03955
-0.0214,-0.00925,-0.0122
-0.02545,-0.01785,-0.01665
-0.01135,-0.00755,0.008
0.02035,-0.0037,0.0002
0.04075,0.00195,-0.0294
0.02515,0.00855,0.00595
-0.0005,0.00345,0.0603
0.0019,-0.0028,0.0096
0.0105,0.0283,-0.1858
0.02785,0.15675,-0.33005
0.1412,0.15965,-0.3215
0.20505,0.09175,-0.07745
0.1173667,-0.0608333,0.1796333
0.0038,-0.0962,0.0006
-0.07185,-0.1174,-0.14545
-0.0792,-0.2003,0.0808
-0.084,-0.14485,0.2754
-0.13215,-0.0321,0.09665
-0.16245,-0.02835,0.00695
-0.15,-0.13105,0.1232
-0.01265,-0.20495,0.17065
0.0253,-0.157,0.08475
-0.02635,0.0384,-0.124
-0.0462,0.12575,-0.09515
-0.02505,0.1217,0.0763
-0.023,0.10425,0.1911
-0.0389,0.0961,0.0934
0.012,0.0550667,-0.0695667
0.0253,-0.06585,-0.11165
0.0436,-0.2193,0.0874
0.08795,-0.3206,0.11415
0.0953,-0.1797,-0.0032
0.1129333,-0.0896667,-0.0405333
0.171,-0.03805,0.02605
0.13875,-0.10945,0.15625
0.0165,-0.1811,0.3949
-0.0512,-0.1492,0.49115
-0.2019,0.2367,0.1812
-0.32905,0.69,-0.26765
-0.2915,0.59945,-0.27755
-0.20575,0.3306,0.1041
-0.12345,0.2062,0.1826
-0.0425,0.0433,0.08675
0.0551,-0.18865,0.08575
0.076,-0.3117,0.05965
0.0171,-0.2946,0.07195
0.00675,-0.14385,-0.00825
0.0729,0.0131,-0.10165
0.14675,0.03565,-0.0883
0.09155,0.02145,-0.0016
0.1087,0.0869,0.0438
0.1377,0.12855,0.0182
0.0692,0.0731,0.0355
0.00915,-0.03175,0.1003
-0.01795,-0.03445,0.1569
-0.0296,-0.00515,0.1356
-0.0657,0.00285,-0.01405
-0.0717,-0.0626,-0.0202
-0.0542,-0.0627,-0.08395
-0.0213,0.0483,0.0309
0.02135,0.07315,0.00285
-0.01445,0.01445,0.04305
-0.11745,-0.0202,-0.0181
-0.0986333,-0.1058333,0.0379667
-0.0626,-0.119,0.1078
-0.0187,-0.0934,0.06915
-0.037,-0.00335,-0.01685
0.036,0.0478667,0.0445667
0.09165,0.0033,0.0826
0.0782,0.0014,0.0299
0.0443,-0.0089,-0.0252
0.019,0.00815,0.02145
0.0146,0.04175,0.0535
0.04015,0.06045,0.0753
0.05165,-0.0065,0.09465
0.0347,-0.04025,0.0098
0.00975,0.00285,-0.04105
0.016,0.0183,-0.0433
-0.0008,0.0147,0.01045
-0.0428667,0.0028,0.0905333
-0.04,-0.00665,0.0535
-0.08165,-0.1622,-0.05695
0.05465,-0.0416,0.07835
0.0785,-0.09705,-0.0892
-0.0202,0.0615,-0.0273
0.061,0.0116,0.14145
-0.0568,0.00175,0.1061
-0.116,-0.00525,0.02595
-0.0874,-0.0818,-0.0301
