accx,accy,accz
0.8022,-1.4022,-0.4766
0.1232667,-2.8150667,-0.5756333
-0.20255,-4.104175,-0.899525
-0.7637,-3.2387,-0.50255
-1.2313,-1.92175,-0.0031
-1.827,-1.65255,0.69205
-1.926925,-1.484775,1.189
-1.3276,-0.8958,0.7848
-0.4875333,-0.2258,0.5472333
0.0608,0.4636,0.4644
-0.86564,1.77634,1.29838
-0.3088,3.08325,3.7226
1.6818,4.9626,2.411
2.6579,5.678,-0.4412
3.24982,2.00262,-3.83056
1.4344,-1.64315,-2.3263
-0.48745,-2.76375,-1.3541
-1.1703,-2.0373,-0.4691
-1.50388,1.66526,-0.4799
-1.44655,2.77435,-1.72895
-0.68065,0.6872,-1.38975
-0.3264,-0.7903,-0.1849
0.26655,-2.6642,0.71895
0.5486,-4.8771667,0.6975
0.3583,-4.94585,-0.4872
0.90875,-3.6706,-1.1486
1.37665,-2.76715,-0.55215
1.3166,-2.5852,0.3785
1.0324667,-2.2789,1.5269
1.0194,-1.5366,1.71365
0.8991,-0.81225,1.2423
1.02805,0.33885,0.82275
1.26,1.6909,0.5637
2.01754,3.24752,1.47804
0.0171,3.0797,3.8236
-1.79725,4.37145,1.3538
-1.94025,4.8465,-2.9137
0.37085,3.2531,-4.38455
1.83685,0.54905,-2.9948
-0.0957333,-2.5862333,-1.8434
-1.0723,-2.3837,-0.4191
-1.49075,-1.0229,0.28095
-0.94915,0.6633,-0.34815
1.0628,1.5327667,-1.8149333
1.6748,0.3331,-1.7007
1.1383,-1.0619,-0.9357
0.48125,-2.5186,-0.42445
-0.3064333,-4.1784667,-0.3675667
-0.9188,-4.48285,-0.65015
-1.4129,-3.3727,-0.607
-1.91995,-2.0208,-0.29045
-1.8838,-1.4004,0.2974
-1.2641333,-1.0873,0.9865667
-1.0767,-0.8827,1.2884
-0.9966,-0.8413,1.1271
-0.9055333,-0.5610333,1.0199
-0.9415,-0.0472,1.0386
-1.07372,1.39094,0.94508
-0.83855,2.73105,2.38955
0.9072,3.84465,2.9235
2.6742,4.609975,-0.44655
2.18605,1.51295,-4.1528
1.0777,-0.25415,-3.48135
0.0779,-2.46505,-2.52845
-1.02185,-2.45755,-1.1091
-0.6307,0.27385,-0.72345
-0.42845,2.26365,-1.2623
-0.20415,2.4449,-1.2735
-0.3468,0.049975,-0.301
0.44835,-2.6761,0.65885
0.77325,-3.9724,0.61715
0.81385,-4.1129,0.05055
0.95755,-3.25415,-0.0233
1.079,-2.4862,0.1675
0.9051,-2.1298333,0.5868667
0.7115,-2.13685,0.99185
0.4677,-1.90525,0.9253
0.1228,-1.5599,0.9343
0.07814,0.23892,0.94978
1.1616,2.1024,1.0527
1.7156,1.9784,1.9905
1.1602,1.4911,3.0524
-0.235,1.6457,3.51575
-1.38195,3.2084,-0.90225
1.62155,3.28505,-3.59525
2.2264,2.6895,-3.6665
1.0891,0.4342,-3.31725
-0.8508,-1.0695667,-1.5544333
-1.74915,0.28635,-0.05915
-0.74215,1.3959,-0.2603
0.93195,1.63625,-0.9798
1.912,1.216,-1.2073
2.1204,0.20675,-0.92265
1.4741,-2.1034333,-0.1808
0.1626,-4.20605,-0.12725
-0.4049,-4.83835,-0.67425
-0.91035,-4.4131,-0.93025
-1.2037,-3.3862,-0.6138
-1.5072,-1.4930667,-0.2048667
-1.55235,-0.3993,0.38065
-1.50315,-0.4894,0.99895
-1.2907,-1.0565,1.2162
-0.926625,-1.090725,1.424875
-0.1407,-0.365,1.46425
-0.06935,0.5321,0.90935
-0.4922,1.3201,0.7307
-0.9332333,2.0002667,1.8633667
0.6831,2.77965,2.7403
2.206,3.3057,1.8046
2.3877333,4.1825,-0.8572
2.2111,3.3515,-3.7069
1.041575,0.612525,-4.00415
0.4288,-2.1663333,-2.4522
0.1698,-1.6328,-0.80015
-0.2671,0.32755,0.41595
-1.2736,2.8971,-0.7804
-0.9918,1.24305,-1.1655
-0.539,-0.79295,-0.7631
0.5163,-3.05765,0.22895
0.90185,-4.3498,0.6733
0.9534667,-4.0170333,0.3094333
1.1602667,-2.6870667,-0.2043333
1.3302,-2.28275,0.1924
1.0649,-2.3164,0.9402
0.50544,-2.37634,1.5309
-0.04325,-1.13555,1.25475
0.48675,0.80315,0.737
1.2566,2.3518,0.3859
1.9333,2.536725,1.426375
0.4006,1.2611,3.8778
-1.8437333,2.5832667,2.5962667
-2.5318,5.4891,-1.2696
-0.34805,5.347,-3.49275
1.9636333,1.9908333,-4.4374
1.03215,-1.6288,-2.6286
-0.4689,-2.02825,-0.65695
-0.8227,-1.0639,0.8502
-0.54485,0.3097,0.9402
1.6230333,2.3045,-0.7850333
2.9731,2.12715,-1.911
2.1419,0.18835,-0.96535
1.1051,-1.5518,-0.0504
0.3842,-2.7448,0.1894
-0.69935,-4.69335,-0.41135
-1.41145,-5.3484,-1.12485
-1.70285,-4.0701,-0.8203
-1.52285,-1.8482,-0.1431
-0.9761,-0.8991,0.5666
-1.0241,-0.410075,0.67795
-1.04195,-0.911,0.80455
-0.61385,-0.69835,1.2548
-0.4418,-0.2944,1.4698
-0.2656667,0.7028,1.4396667
-0.6529,1.9768,1.71805
-0.3869,2.1711,2.882
1.11845,3.00935,2.45455
3.091025,4.7504,-1.543675
2.25165,2.1526,-4.7283
1.50745,0.03635,-3.7395
0.7095,-1.86575,-2.0419
-0.393,-2.06195,-0.758
-0.811425,0.003475,0.0086
-1.03425,2.73555,-1.3241
-0.714,2.2768,-1.43615
-0.37445,0.19395,-0.76765
0.1008,-1.6697,-0.0363
0.7948333,-3.7191333,0.5623667
0.891,-4.8708,0.2974
0.5374,-4.55365,-0.12165
0.6513,-3.5023,-0.328
0.858,-2.8813,-0.2676
1.1102333,-2.3178,0.5543333
1.14215,-1.8497,1.6435
0.8718,-1.4057,1.63935
0.6586,-0.74355,1.4043
0.8741,0.45775,0.7895
1.2313,1.9412,0.3806
1.9138,2.9537333,1.4315667
1.043,3.1075,2.4917
-0.58355,4.4815,1.51175
0.55398,4.55738,-3.25188
0.73075,0.5649,-3.0899
-0.7725,-2.3212,-1.84305
-1.0366,-2.608,-0.8088
-1.1335,-1.20245,-0.0468
-0.0437667,1.7707333,-0.5954
2.04645,2.9786,-1.8448
2.14905,1.6949,-1.80505
1.24735,-0.61695,-0.76935
-0.1692,-3.02705,-0.17635
-1.151,-4.7839,-0.2699
-1.3733,-5.5976,-1.00255
-1.28765,-5.4394,-1.35255
-1.0837,-4.33035,-0.8688
-0.6254,-2.6102,-0.2807
-0.5847667,-0.8986,0.3145333
-1.1037,0.7613,0.68785
-1.5693,0.8777,0.8132
-1.5216,-0.07545,0.9996
-0.7412,-0.5126,1.4853
-0.1276667,-0.6037,1.6984667
0.3134,0.1376,1.1316
-0.4216,2.53315,1.4341
-0.219,4.16785,1.855
1.5881,5.8222,-0.3229
2.1046,3.0121,-3.71215
1.63235,0.6551,-3.56385
1.11705,-1.61785,-3.1767
0.096125,-2.955325,-1.652225
-0.1581,-1.15045,0.21535
-0.6469,1.1612,-0.61195
-0.85515,2.63795,-1.653
-0.585175,0.774925,-1.329075
0.0949,-2.10735,0.25005
0.6542,-3.4917,0.64245
0.6607,-3.81885,0.2181
0.7266,-3.16445,-0.20725
0.87595,-2.2897,-0.20245
1.04155,-1.8273,0.1283
1.28225,-1.73765,0.491
1.2943333,-1.6015667,0.9188333
0.3137333,-0.596,0.9198333
0.0128333,1.3398,0.6309
1.1738,2.6562,0.6884
2.5658,2.47435,1.49515
1.2428333,1.2543,3.2900667
-1.4413,1.681,2.3974
-1.2514333,3.4113,-1.6236
0.8388,2.5278,-4.92925
1.29715,-0.0235,-4.84585
-0.520475,-0.9783,-2.750125
-1.5148,0.8449,0.26115
-0.99625,2.23005,0.57345
0.1402,3.0169,-0.7127
1.3641,2.8454,-1.6311
2.598625,0.847025,-1.231975
1.5769,-2.38225,0.41965
0.3776,-4.1018,0.3453
-0.3986,-4.7159,-0.2634
-0.9885667,-4.4151333,-1.1734667
-0.918025,-2.471,-1.0059
-0.60985,-1.16275,-0.014
-0.9999,-0.99025,0.6555
-1.4689,-0.9837,1.13985
-1.6053,-0.834275,1.248125
-1.5025,0.3649,0.95855
-0.86315,2.1982,0.60235
-1.0511,3.2749,0.8669
-0.6772333,3.1148,2.152
1.4534,2.4765,3.11245
2.84765,2.70695,0.91805
2.94935,2.9603,-2.0475
1.51375,0.607875,-4.313925
0.82365,-1.40985,-2.74285
0.74025,-1.23995,-0.8768
0.7834,0.0419,0.3062
0.2547,1.523,-0.2091
-0.502,2.1989333,-1.6293333
-0.6317,0.98675,-1.8056
-0.6452,-0.46555,-0.40695
0.01085,-2.5656,0.7401
0.8117,-4.16185,0.9474
0.9257,-4.3864,0.3675
0.8115333,-3.8231667,-0.3496333
0.8323,-2.7957,-0.2363
0.7761,-2.28665,0.23375
0.7743,-1.85805,0.8451
0.828,-1.5698,1.1643
0.8227333,-1.2624667,1.283
0.1954,-0.12415,1.0546
0.4526,1.0713,0.1859
1.7595,2.1605,-0.1002
2.5246,2.06085,1.36425
0.7069,1.0616,3.62355
-2.0384,2.1861,1.9429333
-2.3141,4.2862,-1.8338
0.1294,4.34595,-3.30595
2.2791333,2.1185,-3.654
0.76295,-0.396,-2.9051
-0.6122,-1.60085,-2.08535
-1.30515,-0.84585,-0.8089
-1.2417,0.1302,-0.1143
-0.36605,0.9624,-0.36935
1.18485,1.77925,-1.0279
2.23245,1.4738,-1.41635
1.7122667,-0.4627,-0.866
0.29195,-2.7653,-0.3781
-0.4691,-3.7815,-0.4767
-1.2848333,-4.4345333,-0.7795333
-1.3043,-4.23185,-0.8661
-1.0006,-3.1326,-0.6442
-0.9333,-1.5318333,-0.0015333
-1.0653,-0.3192,0.8408
-1.39985,-0.10925,0.9151
-1.4485,-0.6144,1.0594
-1.08375,-0.79505,1.2622
-0.6702,-0.45145,1.18315
-0.152875,0.341325,0.653725
-1.2229,1.6592,1.3646
-0.3802,2.5283,2.8622
0.9173,3.0094,3.1097
2.1589,3.2599333,1.3484667
2.90655,3.1202,-1.8677
1.52105,1.53445,-3.2587
0.24465,-0.45265,-3.5888
-0.0905,-2.3241,-3.8962
0.4402333,-2.6378333,-2.6941667
1.146,-0.8237,-0.38505
0.58015,1.37785,0.50735
-0.37835,3.58055,-0.75655
-0.4096,3.8853,-1.5892
-0.6726,1.9032667,-1.2788
-0.9715,-0.92155,-0.1517
-0.1337,-2.94215,0.5738
0.05705,-4.05015,0.182
0.29115,-3.5931,-0.48425
0.8763,-2.6118,-0.7369
1.2947333,-1.9535,-0.5738
1.54875,-1.8328,0.05265
1.6158333,-1.8384667,0.8989667
1.1451,-1.6586,1.0212
0.851,-1.5035,0.937
0.27045,-0.56915,0.724025
0.0112,0.5829,0.3289
0.6365,1.7971667,-0.0234
1.8751,1.982,0.2977
2.13245,1.19525,1.45645
0.11815,0.82325,2.62785
-1.1400667,2.7522333,0.5291
0.4874,3.31405,-1.74105
1.828,2.7139,-2.2104
1.6134333,1.5834667,-3.0245333
0.07385,-0.40175,-2.98275
-1.1217,-1.7013,-2.192
-1.54905,-1.02905,-1.4088
-1.0101,-0.0602,-0.7763
-0.09185,0.5103,-0.62155
1.4715,1.5376,-0.7425333
2.30765,1.52205,-0.85775
1.8079,-0.00865,-0.64
0.729,-1.5432,-0.344
-0.342,-2.62755,-0.3038
-1.1799667,-3.3362667,-0.5658667
-1.14215,-3.07535,-0.55485
-0.73125,-1.9674,-0.47365
-0.70475,-0.74915,-0.18265
-0.902,-0.3028,0.2115
-1.1272,-0.3212,0.6775667
-1.12615,-0.54065,0.7954
-1.0002,-0.59835,0.8598
-0.74295,-0.5257,0.97695
-0.4724,-0.5676,0.9174
-0.0872667,-0.6185,0.6894333
0.2055,-0.58095,0.16015
-0.132,-0.114,0.0436
-0.51005,0.51965,0.7698
-0.2675,0.6468,1.5919
0.6721333,0.9889333,1.8722
1.8089,1.9612,0.781
1.7384,3.33595,-1.261
1.0406,3.46,-2.8508
0.27145,2.05955,-3.5226
0.30515,-0.543275,-3.415875
1.6120667,-0.7298333,-1.8039333
1.45545,0.74945,-0.5839
0.9103,1.6093,-0.5256
0.3677,1.8857,-0.6954
-0.684575,1.659925,-0.958975
-1.1004,0.1009,-0.8036
0.1819,-1.2797333,-0.5414667
1.3807,-1.9065,-0.3082
1.548,-1.8261,-0.55835
0.9957,-1.50585,-1.05735
0.52795,-1.3336,-1.1432
0.8363667,-1.0384,-0.5972333
1.0238,-0.6797,-0.0932
1.01745,-0.5049,0.0354
1.04215,-0.6786,-0.0158
0.8835,-1.0245333,0.0966667
0.4694,-1.0256,0.4301
0.222,-0.7616,0.5279
-0.0389667,-0.3636333,0.1061
-0.0717,-0.33705,-0.72875
0.0718,-0.76735,-0.95905
0.41255,-0.9814,-0.66
0.519775,-0.274275,0.300675
0.0144,0.3691,1.47525
-0.66985,0.7838,2.145125
-0.5735,1.7957,1.2959
-0.40205,2.35575,0.43965
1.0223667,2.2,0.1787
2.11085,0.9641,0.2485
0.9985,-0.12565,-0.2449
0.08155,-0.7532,-0.3537
-0.5192,-0.9171,-0.2195
-0.6419,-0.7184,-0.3103
-0.60015,-0.13255,-0.73325
-0.0541,0.35705,-1.16615
0.7121,0.4202,-1.54135
0.8343,0.1793,-1.7204
0.4486,-0.1718,-1.6558333
0.0825,-0.57155,-1.30755
-0.32765,-0.5826,-1.05375
-0.45,-0.4646,-0.9587
-0.4067,-0.1685667,-0.8871
-0.18725,0.0789,-0.78585
-0.0411,0.0523,-0.5377
0.0333,-0.0248,-0.2351
0.0691,-0.09095,-0.01265
0.085,-0.3008667,0.1262333
-0.0604,-0.6477,0.19375
-0.2069,-0.7344,0.1118
-0.27295,-0.72975,0.01115
-0.2136,-0.7616,0.0522
-0.1375667,-0.7744667,0.1967333
-0.1324,-0.53335,0.2588
-0.1516333,-0.3257,0.2613667
-0.2562,-0.4073,0.3793
-0.3532,-0.52025,0.4158
-0.5352,-0.6549,0.6036
-0.5955,-0.90145,0.75855
-0.4593,-1.0126,0.5268
-0.3340333,-1.0435667,0.4819333
-0.384,-0.93925,0.63275
-0.3658,-0.295575,0.64945
-0.2424,-0.0244,0.4787
-0.0757333,-0.3086333,0.6295
0.0044,-0.5265,0.9129
0.04545,-0.60275,1.08165
0.1644,-0.5424333,1.0871333
0.272,-0.36125,1.04165
0.1377,-0.2729,1.3549
0.022,-0.2175,1.681
-0.11495,0.0163,1.7623
-0.6192,1.0330667,1.2087333
-1.0931,2.2562,0.1005
-1.2818,2.25755,-0.5047
-1.0771,1.5132,-0.4762
-0.75455,0.637,-0.42865
-0.3514667,-0.2461333,-0.4566333
-0.3598,-0.64635,-0.6432
-0.2101,-0.7807,-0.95535
0.42355,-0.54905,-1.46915
1.1211,-0.49835,-1.9951
1.47175,-0.82155,-2.2369
1.65895,-0.98255,-2.04265
1.58275,-0.51325,-1.5608
1.23085,0.1546,-1.1023
0.9106,0.5891,-1.07
0.4838,0.9910667,-0.9950333
-0.0519,1.1783,-0.9436
-0.08515,0.94005,-0.90345
0.2524,0.33595,-0.5604
0.54555,-0.4735,-0.2261
0.45345,-1.16875,-0.242
0.1836,-1.4922,-0.19675
0.0282,-1.5442,-0.1205
0.0107,-1.1475667,0.0404667
0.15025,-0.36105,0.2047
0.21225,0.10035,0.23755
0.2498,0.1824,0.3332
0.2863,-0.1057,0.5207
0.28545,-0.58715,0.6066
0.21145,-0.8347,0.66375
0.1154,-0.8806,0.7587
0.0511333,-0.7345,0.7294333
0.1209,-0.5992,0.7713
0.19735,-0.6368,0.7679
0.274,-0.757,0.68195
0.38615,-0.7675,0.5016
0.4834667,-0.4882667,-0.0065333
0.4481,-0.08315,-0.247
-0.11835,0.3871,0.42615
-0.6031,0.4704,1.098
-1.29038,0.22954,1.34464
-0.9982,0.4956,0.8187
-0.0580333,0.5548,0.6834667
0.6204,0.2817,0.5608
1.0621667,0.3847667,0.0889
1.5493,0.7477,-0.2632
1.7008667,1.0204333,-0.4993333
1.5144,0.8397,-0.5098
1.298,0.4018,-0.2161
0.495275,-0.924125,0.577875
-0.5458,-1.5036,0.60255
-0.70895,-0.57285,-0.1345
-0.5845,0.5563,-1.4854
-0.373375,0.6399,-2.26805
-0.394,0.2644,-2.01525
-0.39695,0.3268,-1.4037
-0.2546,0.32255,-0.7098
-0.1722,0.3544,-0.3181
-0.1540667,0.1413,0.0159333
-0.12435,-0.3667,0.09725
-0.0532,-0.6345,-0.0603
-0.0859667,-0.9121333,-0.1019333
-0.1219,-1.1634,-0.0759
-0.0720333,-1.0557667,-0.1852333
-0.05665,-0.53755,-0.4394
-0.30705,-0.3947,-0.2745
