accx,accy,accz
-0.482325,1.240425,-3.10605
-1.7037,-1.83585,-2.84985
-2.3672,-2.6129,-2.39905
-1.9311,-1.5701,-1.74215
0.07615,1.947025,-0.493425
2.46735,4.4278,0.1264
2.7586,2.66,-0.4263
1.85405,0.0397,-0.96475
-0.54505,-2.4833,-0.791875
-2.07985,-3.7827,0.41395
-2.5943,-4.2065,0.62315
-2.362425,-4.36025,0.426675
-1.09735,-3.3964,0.3038
-0.09965,-2.3406,0.4389
0.4969,-1.13415,0.6457
0.169725,0.25335,1.317325
-1.1662,1.0206,1.30595
-1.71385,1.3702,1.28805
-1.81245,2.4661,1.61105
-2.0141,2.0245,2.0289
-0.82395,2.70255,2.33245
-0.2553667,1.3554667,3.4968667
-0.078,1.3618,2.38085
-0.14255,2.1285,-0.75835
0.43035,2.8122,-2.92625
0.9267,2.793,-4.0292
0.9225333,1.6422,-4.4737667
0.78425,-0.1382,-3.5776
1.5911,-1.372,-1.28175
1.1718,-1.0689,0.5563
0.4068667,1.1894667,0.7872667
-1.4235,2.2663,0.0280333
-2.59285,-0.14275,-0.8862
-1.7629,-2.60565,-1.1416
-0.00816,-4.67074,-0.80862
1.8802,-4.26345,-0.55235
2.8212,-3.13095,-0.0175
1.8322667,-2.1028333,0.5180667
0.8941333,-0.7895,1.2253333
-0.35005,-0.02735,1.05245
-1.15425,0.05915,1.01285
-0.5495,0.1829667,1.3202
0.2707333,1.0403333,1.1298667
1.33005,2.1238,1.44605
1.6628,2.3384,1.8878
1.7268,2.1667,2.3536
1.239775,2.1688,2.40465
0.7115,3.22835,0.19605
-0.3842,3.359,-1.745
-1.15185,2.7962,-3.5883
-1.2287,1.1847,-3.9123
-1.35885,-0.9859,-3.53145
-1.75295,-2.85175,-2.69475
-1.9965,-3.3184,-1.7928
-1.5273333,-1.7702333,-1.1547
-0.3627,0.1155,-0.0407
1.0169667,1.8172667,0.2331333
2.01835,3.105,-0.1877
1.90475,1.5038,-0.4141
0.70905,-0.85755,-0.3455
-0.3068,-2.229,-0.0411
-1.0613667,-3.6147,0.1693333
-1.5815,-4.4442,0.24885
-1.98945,-4.12265,0.35355
-2.03725,-3.3378,0.1253
-1.4831,-2.9823,0.0493
-0.5270667,-2.2815333,0.2950333
0.4149,-1.1734,0.61225
0.61085,-0.5752,0.9206
-0.02515,0.2443,1.04545
-0.8411,0.7762,0.9857
-1.4848,1.258,0.9963667
-1.74315,1.83475,1.42225
-1.0786,1.9349,2.05505
0.0914333,1.3581333,2.9014667
0.8889,1.2657,3.1036
1.1129,1.6645,2.398
0.574925,3.25145,-0.332175
0.3496,4.093,-2.8989
0.14585,3.2274,-3.79655
-0.31305,0.9899,-3.7556
0.2703,-2.1692,-2.537
1.1219,-3.60825,-0.5742
0.8263,-2.4254,0.29085
0.36355,0.2876,0.30135
-0.3782,2.2044,0.2466
-1.30755,3.1838,-0.174
-1.8081,2.2225667,-0.6132667
-0.48955,-0.52595,-0.56215
0.90585,-2.55895,-0.2775
1.584,-3.5813,-0.0629
1.60484,-3.98456,0.33976
0.3333,-3.07405,0.24635
-0.428,-2.36315,0.00435
-0.58,-1.8654,0.1345
-0.27164,-1.71288,1.05498
0.01025,-1.0316,1.0108
0.24015,-0.119,0.5688
0.60315,0.897,0.38435
0.8389,1.7424,0.6197
1.1415667,2.4239667,1.5250333
0.87135,2.05915,3.381
0.22905,1.69165,3.79015
0.5674,2.88135,1.8765
1.3126,3.8688,-0.3342
0.3568333,3.5465333,-2.2468
-1.2668,2.13685,-3.6517
-1.4096,0.1733,-3.2246
-1.4246,-1.6767,-2.9378
-1.1123,-1.86355,-2.12945
0.34365,0.93905,-0.9588
1.62915,3.0116,-0.02615
1.8003,2.889,0.6189
0.146625,-0.218475,0.122225
-1.4589,-2.78785,-0.9273
-1.5571,-3.60015,-0.4667
-1.1037,-3.79885,0.5208
-0.7571,-4.01245,0.741175
-0.8887,-3.7303667,0.1515333
-0.8847,-2.8429,0.1188
-0.64375,-2.0214,0.32015
-0.09575,-0.74395,0.54275
0.01195,0.3609,0.55515
-0.2059,1.0724667,0.7764667
-0.4668,1.1837,1.3273
-0.9786,1.4562333,1.6690667
-1.0810667,2.2643667,2.1144333
-0.5696333,2.4125,3.1221667
-0.0887,3.07015,2.6536
-0.0909,2.8313,0.92755
0.584525,2.337775,-1.77715
0.0712,1.2541,-3.8367
0.4080333,-0.6773,-3.7557333
1.2896,-2.6972,-2.0832
1.26335,-1.866875,0.3549
-0.4075,1.1813,0.91195
-1.75375,2.1949,0.6595
-2.51205,1.4341,-0.179
-1.479175,-1.487725,-0.95415
0.4241,-3.90385,-0.4541
1.2511,-4.40395,0.1729
1.709,-4.1123,0.2258
1.83775,-3.3603,0.15815
1.029825,-2.296875,0.52095
-0.38825,-1.62985,0.88425
-0.99775,-1.39135,1.14105
-0.9786,-0.6206,1.21515
0.1788,0.411275,1.13355
2.13045,1.1097,1.1427
2.8135,1.66025,1.6406
2.532,1.5593,2.7768
0.476875,2.285875,3.388075
0.2369,4.86895,0.1805
-0.4012,4.5126,-2.33765
-0.9519,3.5768,-3.7615
-0.8666,1.1226667,-3.6865333
-1.2047,-1.8972,-2.4786
-1.87635,-3.16905,-1.59175
-1.30645,-2.40195,-0.71845
-0.6875,-0.6021,-0.2465
0.7539333,2.2262,-0.2598667
2.6281,3.82155,-0.53715
3.00255,2.15855,-0.92055
1.8039,-0.4832,-1.04725
0.4247,-1.855,-0.8601
-1.2923667,-3.2700333,-0.4157333
-2.37955,-4.6099,-0.1798
-2.432,-4.6811,-0.3513
-2.2314,-3.96265,-0.34425
-1.7783333,-2.6945333,-0.3023
-0.442025,-1.74685,0.614975
0.6388,-0.9963,1.7442
1.1558,-0.5764,2.1887333
0.7877,0.0744,2.0437
-0.34746,1.35708,1.6028
-1.40205,3.04225,1.74455
-1.38535,2.20395,2.15515
-0.9551,1.1765,2.9297
-0.4541,0.8038,3.2494
0.726275,1.484225,1.27615
1.3374,2.2365,-1.98015
1.62445,2.00255,-3.46085
0.8656,1.1116,-4.0385
0.2218,0.418,-3.9567
0.4762,-1.07075,-3.203475
1.51115,-1.2679,-0.211
1.58215,0.7197,0.4868
1.3627,2.6801,0.5792
-0.66388,2.62098,0.12932
-2.2845,-1.17985,-0.4256
-1.52045,-3.1385,-0.33115
-0.7473,-3.8871,-0.0189
-0.11795,-3.9372,0.3786
0.81535,-3.5267,0.2913
1.6358667,-3.1067333,-0.2243
1.94675,-2.9392,-0.05135
1.2988,-2.811,0.34595
0.9588,-2.7687,0.8568
0.5026,-2.4295667,1.6408
-0.38425,-1.43675,1.77945
-0.1309,-0.2377,1.249
0.62575,0.83445,0.59135
1.220625,2.053125,0.561375
1.14665,2.8066,1.2477
0.38205,2.2847,2.485
-0.24645,1.64505,3.6357
0.07205,2.287275,1.5868
0.23015,2.8705,-2.0762
-0.01645,2.10705,-3.54025
-0.29485,0.3191,-3.6404
-1.29465,-2.25965,-3.3463
-0.9429,-2.60825,-1.73335
0.0156667,-0.1355,-0.4470667
1.5445,2.6347,0.4849
2.41285,4.01645,0.6902
2.3908667,2.5949,0.5455333
0.519,-0.72685,-0.0299
-0.824,-2.82285,-0.17495
-1.3166,-3.8688,-0.0942
-1.49095,-4.30665,0.19645
-1.6624333,-4.4806333,0.3293667
-1.514,-4.2153,0.16445
-1.09945,-3.45955,0.17015
-0.2346,-2.63725,0.0925
0.862425,-0.740525,0.5869
0.60215,0.6105,1.26185
-0.83445,1.03385,1.15015
-2.02665,0.95095,0.90185
-2.232075,1.41885,1.443375
-0.7083,1.7887,2.8485
0.7462,1.7191,3.87785
1.3039,1.99785,3.67315
0.999725,2.598725,0.2784
0.49915,2.6323,-3.0063
0.2253,1.2741,-3.86155
0.1053,-0.67955,-4.0241
0.877625,-2.30745,-2.23515
1.5318,-0.79595,0.5493
0.8439,2.4611,0.4909
-1.1889,4.65795,-0.3244
-2.65875,3.66125,-0.95425
-1.616125,-1.18415,-0.807025
1.1052,-4.925,-0.2273
2.23095,-5.7627,0.1023
2.52505,-5.5736,0.24405
1.284525,-3.7131,0.203
-0.6244,-1.8574,0.5271
-1.1904,-1.18335,0.57955
-1.3182,-0.9258,0.709
-1.0620667,-0.5998333,0.945
-0.18455,-0.1514,0.9399
1.00595,0.4066,1.0052
2.1708,1.22005,1.19375
2.7013,2.0096,1.3
2.2842,2.3185667,1.9933333
1.5602,1.34185,3.51495
0.5519667,1.1577667,3.4369
0.0832,2.7198,1.0722
-0.1215,3.1686,-0.1109
-1.24734,3.1734,-2.47418
-1.1945667,-0.1259667,-2.7524667
-1.7227,-2.4187,-2.2122
-1.78495,-2.6861,-1.7269
-0.2432,-0.1661,-1.101025
1.9248,1.9453,-0.9576
2.52345,2.018525,-0.6931
0.1107,-1.0855,-0.3084
-1.82865,-2.8929,-0.02775
-2.3711,-3.82555,0.27
-2.11645,-4.02435,0.6121
-1.586,-3.42395,0.82585
-1.02,-2.275,0.798175
-0.67585,-1.15335,0.87105
-0.4645,-0.8736,1.1457
-0.3704,-0.7504,1.3352
-0.5022,-0.7377,1.4079
-0.7258,-0.13265,1.00975
-0.52135,0.84145,0.4839
-0.26575,1.74635,0.9452
-0.17135,2.7253,2.11185
-0.683,2.39905,3.649075
-0.6163,2.468,2.161
0.1934,2.63855,0.0958
1.11675,3.03765,-1.8221
0.8792,3.1304,-3.4451
0.3166,1.8072667,-4.5871333
0.35655,-0.8006,-4.35835
1.11285,-2.5949,-3.00735
1.9538,-3.1442,-0.59095
2.0696,-2.4911,0.2564
1.1040333,0.0061667,0.1274
-0.7273,2.9453,-0.0426
-2.11875,3.38655,-0.5146
-2.3654,1.719,-0.67565
-0.5215,-2.026775,-0.5163
1.2366,-4.5548,0.00955
1.97924,-4.41258,0.22252
0.9165,-2.7264667,-0.1080333
-0.3413333,-1.3503,-0.0438333
-0.8392,-0.93255,0.5248
-0.9356,-0.9098,1.0022
-0.9071,-0.7717,1.2919
-0.6170667,-0.2641667,1.5537667
0.5918667,0.3120667,1.2281
1.71735,1.41425,1.1533
2.384,2.10835,1.59365
2.53045,1.832,2.32175
1.5392,3.0311,2.266375
0.851,3.9815,0.5515
-0.5272667,3.6569667,-1.0648
-0.8329,1.68325,-2.6636
-1.08875,-1.51035,-2.851675
-1.3214,-3.49715,-2.68005
-1.3705,-2.70595,-2.3621
-1.0565,-1.0705,-1.9532
-0.4706,0.2613,-1.7105
1.5424667,2.6003667,-0.5433333
3.0518333,4.0182,0.0941333
2.4806,1.18,-0.1211
1.3498,-1.0619,-0.5112
-0.5782333,-3.1849,-0.8344
-2.9266,-4.56695,-0.30805
-3.40715,-4.66265,0.71875
-2.59345,-4.23835,0.65285
-1.786,-3.5953,-0.0671
-0.12598,-2.02698,-0.3499
1.49525,-0.3595,0.83195
0.9622,-0.31335,1.2422
-0.04615,-0.3421,1.56345
-1.645025,-0.246,1.1083
-1.5084,0.1208,0.94335
-0.6861,0.9239,1.3491
0.3175,1.6307,2.13075
0.9622,1.9946,2.7491
1.0246,2.7402333,3.0068667
0.70205,3.7555,2.02035
0.88865,3.6973,0.25725
0.67285,3.95785,-2.1246
-0.581525,2.2497,-3.9529
0.81925,-1.7186,-4.09655
1.58325,-3.5672,-2.8277
2.01705,-3.672,-1.01145
0.28978,0.1579,-0.77002
-1.9759,3.3302,-0.767
-1.8153667,2.9861,-0.5376
-0.885,1.1137,-0.7027
0.86238,-2.29258,-0.60902
2.2557,-4.4517,-0.03105
2.4231,-4.22615,0.299
2.0326,-3.6885,0.3986
1.3429667,-2.8557667,0.2721333
0.421525,-1.79955,0.594625
-0.5915,-1.3626,0.9801
-1.1104,-1.02745,1.04995
-1.1251,-0.4045,1.13935
-0.3976333,0.3957333,0.8294667
1.08415,0.802,0.76835
2.4657,1.4541333,1.2225667
2.8214,1.6677,2.0217
1.87144,2.06176,2.41278
0.47035,3.8341,-0.30335
-1.01205,3.8844,-2.5662
-1.3173333,1.9989333,-3.7463
-1.4868333,-0.8178333,-2.9866333
-1.1635,-2.70705,-2.2638
-0.5766,-2.5947,-1.3692
1.607975,0.612775,-0.370725
2.91485,3.8119,0.1057
2.76695,2.8378,-0.2171
1.95445,0.30945,-0.86655
0.7434,-1.519,-1.3568
-1.94644,-3.38868,-0.39206
-2.9427,-3.59145,1.016
-2.15985,-3.2684,0.28945
-1.3444,-2.7546,-0.25055
-0.7597,-2.2669,-0.1716
0.0569333,-1.7508667,0.2655667
0.69465,-1.3524,0.9705
0.49375,-1.0899,1.2469
-0.12635,-0.31355,1.0033
-0.867225,0.372975,0.379575
-0.878,1.49965,1.31975
-0.7324333,2.2075333,2.4124
-0.5854,2.9817,3.0957
0.54612,3.91778,0.83022
2.521,2.8001,-2.2795
1.449,1.11315,-3.04605
0.2649333,-0.9144667,-2.7353
1.4782,-2.1031667,-1.7911333
1.94445,-0.34015,-0.6086
1.4296,1.7022,-0.5303
0.6343,3.0553,-0.4363
-0.3159,4.0593,-0.4714
-1.96228,2.39678,-0.67776
-1.09335,-3.13165,-0.8518
0.0803,-4.8733,-0.8185
0.9339,-5.563,-0.6951
2.3457333,-4.7410667,-0.0569667
1.36975,-1.99445,-0.37095
0.32945,-1.11335,-0.56645
-0.498,-0.62775,-0.0985
-0.9246,-0.5226,0.3295
-0.64332,-0.63366,0.97246
0.9563,-0.69995,1.2433
1.9531,-0.7266,1.3311
2.17074,0.0951,1.46288
1.40635,1.00325,1.9751
0.71415,1.28735,2.8792
0.3637,1.8202,3.3239
0.28338,3.80508,0.75014
-0.4978,3.67985,-3.2974
-0.4116,1.7848,-4.277
-0.4596,0.0218,-3.9861
-1.04986,-2.3661,-3.16376
-0.91455,-2.18525,-2.2027
0.43275,-0.0031,-1.3846
1.8143,2.35,-0.5205
2.95416,4.05634,0.01918
1.90085,0.41795,-0.73645
0.04565,-2.17025,-1.21985
-1.74565,-3.6971,-1.0066
-2.4746,-4.225,-0.208
-2.5541333,-4.1722,0.9728
-1.9328,-3.6084,1.0513
-0.9682667,-2.5826667,-0.0376333
0.0022,-1.2647,-0.3949
0.6879,-0.5988,-0.16855
1.15555,-0.1874,0.2955
0.2561667,-0.4324667,0.8471
-0.9721,-0.7013,0.9619
-1.59935,-0.8161,0.83125
-1.564625,0.095775,0.795425
-0.03125,1.8153,1.48405
1.24795,2.2575,2.33715
1.0118,2.6245,2.8150667
-0.363525,4.38435,-0.699325
-0.1356,3.6326,-3.74195
0.116,1.5896,-4.3837
0.4965,0.1273,-4.0621
2.0175,-2.15348,-2.16628
1.73115,-1.14715,-0.36515
-0.0559,2.11775,-0.16105
-1.6523,4.2489,-0.3285
-3.27865,4.65625,-0.7564
-2.58264,0.05652,-1.1645
1.3061,-4.56905,-1.4366
2.8284,-5.6052,-0.96255
3.2953,-5.6575,-0.4032
2.01272,-4.31398,-0.36654
0.44875,-2.1939,-0.5708
-0.46675,-1.03855,-0.5057
-0.394625,0.422975,0.1019
0.51775,1.16285,1.43705
1.7795,0.469,1.48585
1.94025,-0.453,0.9535
1.5566,-0.634,0.9984
0.9434,0.23746,2.20164
0.19645,1.20445,3.23185
0.11175,1.85265,2.9793
0.0332,2.735725,0.14135
-0.88765,2.6563,-2.85015
-0.8363,1.6634,-3.1877
-0.97295,0.5435,-3.2556
-2.0324,0.16505,-3.5642
-1.941375,0.729625,-2.37135
1.4258,2.61735,-0.27775
3.17215,3.17505,0.2027
2.74745,1.51885,0.42915
0.67425,-2.1043,-0.646625
-1.4672333,-4.4942,-0.9708333
-1.9732,-4.8142,0.07635
-1.4354333,-4.1040333,0.1002333
-0.93735,-2.46595,0.0572
-0.81265,-0.77255,0.0782
-0.7062,0.19,0.15915
-0.66365,0.4061,1.0746
-0.66082,-1.14948,1.3838
-0.8339,-1.8223,1.25285
-0.72965,-0.7758,1.3818
-0.892,1.6506,1.791225
-0.6072,2.0549,2.0762
0.0927,1.56745,2.039
0.7036,1.4197,1.7086
1.1483,1.7494,1.0717
1.48648,3.6707,-1.3983
-0.44835,3.5011,-3.74735
-0.58625,0.75465,-3.9854
0.258,-1.427,-3.2556
2.1156333,-3.5344,-1.6145
2.467,-2.94465,-0.6245
1.63805,-1.1863,-0.1801
0.06695,1.4662,-0.1343
-2.24345,3.926,-0.20765
-3.420175,2.1863,-0.55325
-1.0703,-1.5454,-0.24055
1.27015,-2.9722,-0.2118
2.645,-3.4878,-0.3786
3.3208,-3.212,-0.31586
1.3349,-2.3863,-0.03385
-0.2473,-2.52885,-0.12095
