accx,accy,accz
-0.03846,-0.01544,-0.23484
-0.047425,0.0192,0.0086
-0.083775,-0.012975,0.048875
-0.0854,0.014375,0.045575
-0.02364,0.00894,0.02234
0.0412667,0.0069,-0.0243667
0.0582,0.00536,-0.04294
0.050775,-0.00655,-0.044275
0.013475,-0.005875,-0.046275
0.044675,0.01575,-0.04865
0.146725,-0.007125,0.051525
0.1666,-0.007425,0.14885
0.123825,-0.0136,0.052925
0.064175,-0.053825,-0.0982
0.017425,-0.041375,-0.06325
-0.058025,0.02035,0.024375
-0.102675,0.0615,-0.062425
-0.097125,0.07145,-0.083625
-0.0851,0.01195,-0.03895
-0.072675,-0.015175,-0.006975
-0.02125,-0.02915,0.036275
-0.017125,0.00175,-0.0425
-0.073275,0.04275,-0.103225
-0.0954,0.015875,0.03325
-0.114825,-0.056,0.07165
-0.09876,-0.0361,-0.00506
0.0135,-0.0035667,-0.0161667
0.11192,0.0352,-0.02346
0.102275,0.03495,0.00075
0.064025,-0.00045,0.058
0.028375,-0.029825,0.105075
-0.001625,-0.024625,0.108525
-0.0458,-0.043025,0.08015
-0.118725,-0.04825,0.0123
-0.122475,-0.022675,-0.003325
-0.07085,0.02445,0.051375
-0.007675,0.013575,0.02295
0.051675,0.012,-0.0118
0.079125,0.01465,-0.01325
0.032475,-0.0094,0.026225
-0.053775,-0.050375,-0.013625
-0.0437,0.00915,-0.063725
0.0465,0.053425,-0.05105
0.105125,0.046,0.024425
0.0684,-0.009,0.076525
-0.00625,-0.10125,0.11935
-0.055425,-0.139075,0.148375
-0.05064,-0.16446,0.14202
-0.0665,-0.11875,0.102825
-0.076925,0.008775,0.012275
-0.05405,0.095,-0.07815
-0.023375,0.167575,-0.1291
-0.0057,0.13955,-0.049975
-0.022025,0.0857,0.05125
0.03855,0.030625,0.01315
0.13395,-0.022325,0.056125
0.14745,-0.094775,0.1326
0.06505,-0.125975,0.081375
-0.011325,-0.0766,-0.00405
-0.081525,0.0067,-0.012925
-0.12095,0.10815,-0.03625
-0.086825,0.143075,-0.068425
0.031275,0.096375,-0.07025
0.079825,0.05375,-0.056925
-0.00235,0.019175,0.0038
-0.097625,-0.04405,0.063375
-0.08605,-0.087625,0.05785
0.023275,-0.06055,0.04845
0.10525,-0.0055,0.030725
0.088,0.00432,-0.01194
0.009375,0.01265,-0.0742
-0.02615,0.025925,-0.093525
-0.0496,0.0216,-0.084375
-0.060275,-0.00265,-0.0391
-0.0784,-0.017525,0.031825
-0.07935,-0.01995,0.09585
-0.0505,-0.036625,0.077575
-0.04465,-0.02915,0.023325
-0.024525,0.01755,-0.04
0.0096,0.0259,-0.0625
0.037225,-0.021725,-0.094125
0.03195,-0.037175,-0.062775
0.0428,-0.027225,-0.02935
0.067075,0.00395,-0.01025
0.037125,0.027125,-0.0169
0.021275,0.02565,0.009475
-0.0156,-0.0241,-0.0032
-0.079775,-0.035775,-0.029
-0.08155,-0.014025,0.07645
-0.02994,0.02406,0.11862
0.028425,0.023825,-0.009125
0.052625,-0.0144,-0.125975
0.0277,-0.025875,-0.1615
-0.0682333,0.0282333,-0.1497333
-0.04046,0.08092,-0.14642
0.06375,0.0899,-0.120325
0.122425,0.031275,-0.07685
0.085575,-0.0232,-0.05105
0.006925,-0.029875,-0.015425
-0.044475,0.00745,0.034275
-0.033425,0.01595,0.02895
-0.05095,-0.00375,-0.01675
-0.01625,-0.01895,-0.0442
0.0041,0.004275,-0.0165
0.038925,0.01375,0.005625
0.031525,0.0076,-0.007225
0.02455,-0.00525,-0.028825
0.023775,0.02035,-0.020875
0.0171,-0.003475,-0.0046
5e-05,-0.024875,0.01015
-0.00435,-0.000225,-0.00275
-0.01092,0.00126,-0.0212
-0.002075,-0.003275,-0.01215
0.0055667,-0.0464333,0.0018
0.06484,-0.04094,0.00554
0.100025,-0.00155,0.01065
0.11405,0.001525,0.0147
0.09885,0.0195,-0.039675
0.0516,0.062,-0.0983667
0.03126,0.04176,-0.06126
0.03695,-0.048375,0.0361
0.023725,-0.06915,0.062875
0.013625,-0.022275,-0.003625
-0.008825,0.01815,-0.023475
-0.070625,0.029975,-0.04455
-0.08545,0.056675,-0.097025
-0.07415,0.080975,-0.071775
-0.017175,0.041575,0.011175
0.01675,-0.05235,0.062575
-0.006,-0.080825,0.0705
-0.008575,-0.067075,0.098075
0.005125,-0.04185,0.11935
-0.01114,-0.02094,0.07988
-0.03905,-0.013075,0.0464
-0.0823,-0.00385,0.03035
-0.07565,0.000575,0.01005
-0.067575,0.0379,-0.0014
-0.024625,0.0458,-0.00335
0.018175,0.03655,0.0097
0.034975,0.0154,0.01025
0.032925,0.0092,-0.00945
0.0246,0.018725,-0.0214
-0.002925,0.0019,0.002075
-0.017275,-0.0094,0.0186
-0.034475,-0.015025,0.015425
-0.0716333,-0.0360333,-0.0012667
-0.07192,-0.05108,0.00154
-0.037675,-0.01505,0.0083
0.00325,0.0152,0.020525
0.030125,-0.008325,0.0171
0.0352,-0.02135,-0.0012
-0.0143,0.034325,-0.058775
-0.043925,0.05195,-0.04855
-0.02348,-0.00582,0.0012
0.018825,-0.059325,-0.008575
0.021525,-0.024775,-0.03835
-0.01045,0.017475,0.0011
-0.0548,0.0136,0.033475
-0.048625,0.027625,0.0026
-0.014025,0.026925,-0.00335
0.004475,0.00745,0.042275
0.0146,-0.015,0.0505
0.0109,-0.012625,0.0347
0.014425,-0.001625,0.00465
0.00145,0.005125,-0.011325
-0.0220333,-0.0093,-0.0397333
-0.02112,0.00278,-0.03912
-0.00215,0.05655,-0.024875
0.0281,0.033125,-0.0634
0.0197,0.015925,-0.092925
-0.0107,-0.00065,-0.039825
-0.01995,-0.01055,0.002225
-0.0189,-0.01565,-0.005375
-0.025725,-0.00485,-0.054175
0.00565,0.014975,-0.081825
0.021625,0.0219,-0.07015
0.02624,0.01266,-0.0402
0.0404,-0.02395,-0.0077
0.03255,-0.043225,0.00475
0.001075,-0.051,0.0065
0.0042667,-0.0217,-0.0067667
-0.01586,0.00446,0.00266
0.001325,0.0241,0.023075
0.045075,0.02765,-0.021525
0.007675,0.0358,-0.03405
-0.0300667,0.0199333,0.0412333
-0.0055,-0.04334,0.07864
0.022675,-0.0462,0.025625
0.04045,0.0059,-0.0508
0.0261,0.06185,-0.04385
0.01315,0.0538,-0.01435
0.02235,-0.001275,0.002875
0.0344,-0.031975,0.033725
0.0197,-0.017825,0.07115
0.026225,-0.035725,0.066225
7.5e-05,-0.01205,0.01925
-0.00205,0.006575,0.008275
-0.018675,0.03495,0.013625
-0.00208,0.00784,-0.0068
0.00705,-0.018725,-0.0184
0.0026,-0.0327,-0.0180333
-0.00764,-0.01954,-0.01002
-0.018075,-0.00335,0.002975
-0.0143,0.014075,0.021225
0.004325,0.010375,0.03145
0.0043,0.00075,0.032425
0.007325,-0.0135,0.022525
-0.006575,-0.011575,0.026675
0.0086,0.036575,0.007675
0.01035,0.033475,-0.01215
-0.004475,0.0004,-0.027325
-0.0176,-0.00445,-0.005325
-0.03025,0.0082,0.01105
-0.02585,0.006,0.0224
-0.009975,-0.006325,0.01475
-0.03275,-0.006275,-0.031925
-0.036125,-0.0056,-0.005625
-0.020675,-0.0384,0.0837
-0.019425,-0.042575,0.061425
-0.0179,0.0312,-0.05604
-0.0136,0.0266667,-0.0558333
-0.01448,-0.00324,0.02028
-0.01625,-0.02155,0.01215
0.02075,0.016175,0.02635
0.02985,0.0204,0.027975
0.0186,0.0158,0.017225
-0.01585,-0.031425,0.019425
-0.02895,-0.0403,0.01955
-0.022925,-0.010425,0.01065
-0.016425,0.01565,-0.008375
-0.01365,0.024775,-0.0334
-0.004625,0.00965,0.011075
-0.0106,-0.00865,0.06355
-0.022425,-0.015225,0.065025
-0.0251,0.00925,-0.011775
-0.0211,0.033075,-0.019975
-0.0016,0.016825,0.01155
0.0172,-0.0059,0.050075
0.017925,-0.0225,0.048825
-0.00298,-0.0245,0.00882
-0.0222667,-0.0142667,-0.0115667
-0.0128,0.00616,-0.0187
-0.0155,0.009575,0.026475
0.0064333,-0.0211,0.0524667
0.02342,-0.04042,0.05274
0.01015,-0.033075,0.00835
-0.011625,0.01255,-0.02235
-0.014325,0.0324,0.0371
-0.014,-0.03405,0.100875
0.004175,-0.0348,0.04225
0.00375,-0.0125,-0.038475
-0.013375,-0.0065,-0.036525
-0.024875,0.00355,0.008675
-0.0274,-0.00635,0.04065
0.012875,-0.015375,0.034575
0.00255,0.008675,0.042175
0.009875,-0.002725,0.028325
0.010075,-0.00985,0.027275
0.034675,-0.021575,0.04285
0.0099,-0.036575,0.04345
-0.01262,-0.02554,0.03862
-0.024125,-0.016525,0.018575
-0.02765,-0.007025,0.0389
0.00255,-0.007875,0.00955
0.014525,-0.0174,0.008625
0.00375,-0.0066,0.01305
-0.0005,0.0255,0.00375
-0.020075,0.054275,-0.008925
-0.0018,0.017675,-0.0203
-0.005825,-0.00625,-0.033125
-0.0204,0.00725,-0.0019
-0.0238667,-0.0103667,0.0099
-0.01358,-0.01636,0.01622
-0.009725,-0.013975,0.029175
0.01105,-0.011525,-0.019275
0.022375,0.02875,-0.11145
-0.019875,0.043225,-0.099875
-0.0142,0.005425,0.021125
0.04895,-0.029525,0.0233
0.06285,-0.02935,-0.126575
0.026725,-0.015025,-0.16415
-0.002025,-0.000325,-0.062575
-0.01994,0.03288,-0.00156
-0.0137,0.0254,-0.013275
-0.004625,-0.003525,-0.009875
-0.03215,-0.0004,-0.016
-0.053325,0.02165,0.0095
-0.03515,0.003925,0.01295
-0.0042,0.001175,-0.013475
0.003475,0.003475,-0.05565
0.018125,0.00705,-0.060725
0.04415,0.0104,-0.046975
0.037125,0.022575,-0.01975
0.00565,0.031425,-0.0293
0.004525,0.026875,-0.03155
0.0055,0.005825,-0.014075
-0.00635,-0.031725,0.002075
-0.001175,-0.0221,0.00975
0.007675,0.00945,-0.011425
0.006625,0.019125,-0.034425
0.01285,0.01775,-0.053575
0.02745,0.016275,-0.02255
0.028025,-0.001625,0.036675
0.0358,-0.014325,0.054825
0.00288,0.00692,-0.01012
-0.010725,0.032075,-0.047675
-0.035125,0.01395,-0.0348
-0.05205,-0.02255,-0.01915
-0.012525,-0.006475,-0.0011
0.041425,-0.00035,0.0013
0.03485,-0.0001,0.0174
0.0001,0.0042667,0.0165333
-0.0026,-0.00704,-0.01698
-0.0047,-0.009325,0.01725
-2.5e-05,-0.007975,0.063825
-0.016575,0.003425,0.071875
-0.0198,0.025575,0.054425
-0.02665,-0.010775,0.03725
-0.01245,-0.043425,0.03015
-0.016575,-0.040075,0.0257
-0.018625,-0.006,0.014625
-0.02305,0.026725,0.003525
-0.016725,0.03545,-0.015725
-0.013125,0.0232,-0.00525
0.020525,-0.004725,0.0125
0.02098,-0.02492,0.04516
0.007875,-0.0342,0.068425
-0.001625,-0.017375,0.052075
-0.01795,-0.00115,0.0121
-0.0187,0.009675,0.0176
-0.019325,-0.0097,0.053
0.01955,-0.049975,0.072925
0.0069,-0.0369,0.021425
-0.0328,0.02505,-0.001525
-0.027275,0.03165,0.031675
-0.013875,-0.022275,0.001725
0.009225,-0.016075,-0.032625
-0.002025,-0.0076,-0.019125
-0.0079,0.001325,0.024475
-0.026375,-0.0004,0.072175
-0.018325,0.004,0.0637
-0.020225,0.013775,0.045825
-0.0232,0.0108,0.0325
-0.00915,-0.005675,-0.004675
-0.00955,0.0197,-0.0176
-0.005425,0.0067,0.025
-0.016575,-0.009975,0.021775
-0.01656,-0.01824,0.00314
-0.019575,0.01215,-0.0029
-0.0191,0.002425,0.00525
-0.0114,0.01475,-0.010775
0.0024,0.0041,-0.0098333
0.00544,0.00202,0.00784
-0.0056,0.001925,0.014825
-0.018975,-0.0019,0.017475
-0.02255,0.001775,0.026175
-0.0104,-0.005925,0.019875
-0.023175,-0.014025,0.032675
-0.002775,-0.018025,0.05425
0.0059,-0.02995,0.037625
-0.019525,0.008975,-0.019175
0.000875,0.064125,-0.0146
-0.01315,0.034725,-0.002425
0.0084,-0.0185,-0.06015
0.005575,0.005075,-0.060625
-0.012275,0.02455,-0.02175
-0.0167,0.018125,0.0065
-0.01426,0.01506,-0.04588
0.0242333,0.015,-0.0684333
0.01674,0.0177,-0.00574
0.00305,0.00325,0.021175
-0.00105,-0.0036,-0.026
-0.0096,0.0009,-0.055625
-0.003825,0.005525,-0.03135
-0.01095,-0.0128,0.0252
-0.01465,-0.022725,0.04415
-0.0032,-0.01425,0.0024
-0.001175,-0.009525,-0.0376
0.01245,0.008975,-0.050825
0.0244,0.03395,-0.006275
0.0355,0.02145,0.013625
0.03855,-0.003625,-0.02055
0.025775,-0.013975,-0.0407
0.005725,-0.003025,-0.0463
-0.001875,0.0027,0.003525
0.022475,-0.018625,0.03675
0.0505,-0.045275,0.047775
0.036075,-0.0011,-0.001125
0.003025,0.025625,-0.024125
-0.0135,-0.0077,0.0707
-0.0154,-0.0533,0.042075
0.000325,-0.017425,-0.017625
0.0114,0.00685,-0.0372
-0.0039667,0.0206667,-0.0023333
-0.00192,0.02148,0.02152
0.001925,0.014925,0.0198
0.01335,0.0035,0.04575
-0.0027,-0.0033,0.008775
-0.0183,0.0163,0.0182
-0.003625,-0.00995,0.065
0.0017,-0.031025,0.02885
-0.0209,-0.027625,0.0043
-0.0286,-0.017425,0.013875
-0.026175,-0.011975,0.001125
0.000825,-0.0154,-0.048675
-0.000975,0.0143,-0.067325
0.009,0.029325,-0.03425
-0.002425,0.025575,-0.0236
-0.013,-0.000375,-0.037075
-0.0188,-0.0227,-0.05965
-0.01148,-0.02836,-0.05394
-0.0023,-0.014725,-0.0049
0.023125,-0.019075,-0.00235
0.038825,-0.013675,-0.048025
0.00015,0.03685,-0.074425
-0.043625,0.0225,0.006225
-0.00075,-0.017075,0.14385
0.0226,-0.05815,0.099425
0.0128667,-0.0146333,0.0019333
-0.00298,0.00688,-0.03898
-0.021325,0.002975,0.006725
-0.0212,-0.002875,0.006975
-0.00565,0.015275,-0.009225
0.00825,0.0218,0.01195
0.013275,0.013,0.00375
-0.009675,0.0145,0.0033
-0.004875,-0.00705,0.008125
0.006425,-0.0217,-0.00865
-0.00695,-0.0071,-0.023975
0.002425,0.000975,-0.043075
-0.015,0.0224,-0.024875
-0.02006,0.01324,-0.04514
0.0011,0.0219,-0.0655
-0.015025,0.023775,-0.036225
-0.02325,0.0165,-0.029175
-0.003,-0.0024,-0.00925
-0.0135,-0.0095,-0.01645
-0.0164,-0.0109,-0.0218667
-0.01234,-0.0021,-0.01128
0.00865,-0.00845,0.023075
0.037875,-0.020675,-0.00765
0.002075,0.03,-0.0583
-0.022225,0.04985,-0.02685
-0.0538,-0.0041,0.0429
-0.03465,-0.0582,0.07055
0.00635,-0.030675,0.006575
0.002225,0.01695,-0.056225
-0.023425,0.02255,-0.025025
-0.00965,0.0148,0.002425
-0.001225,0.015625,0.0187
0.005775,-0.0061,0.0499
-0.0079333,-0.0305333,0.0758
-0.01638,-0.02116,0.06726
-0.01662,-0.01462,0.0504
-0.0203333,-0.0060333,0.0325
-0.0187,-0.00012,0.0315
-0.0032333,-0.0075,0.0137667
0.00286,0.01658,0.00608
-0.020775,0.012825,-0.006325
-0.031675,0.009875,-0.02565
-0.014475,0.02025,-0.015075
-0.0101333,0.0172333,0.0009333
-0.00536,0.0092,-0.00568
-0.0162,0.0007,0.005025
-0.007325,-0.019075,-0.00135
-0.00935,-0.0181,0.0217
0.020325,-0.015175,0.0447
0.0549,-0.026425,0.015275
0.055575,0.00845,-0.05665
0.00315,0.0398,-0.06745
0.008,0.00695,-0.0041
-0.002775,-0.0299,0.0249
0.016775,-0.029825,0.0094
0.00775,0.0007,-0.026675
-0.01206,0.0109,-0.00646
-0.021425,0.008375,0.00275
0.008,0.0145,-0.011925
0.0119,0.02195,-0.004125
0.025575,0.0145,0.01215
0.023,-0.0087,0.0064
-0.005625,-0.0238,0.014775
-0.0149667,-0.0133333,0.0255333
-0.02156,-0.02006,0.03446
-0.00155,-0.01025,0.013775
-0.004625,0.004025,-0.008975
-0.017525,0.01105,-0.010975
-0.0371667,0.0212,-0.0079
-0.02198,0.00418,0.00594
-0.015375,-0.004475,0.01265
0.003325,-0.005075,0.005
0.005625,0.0073,0.00145
-0.005275,0.0048,-0.001025
-0.0031,-0.00165,-0.01265
-0.027225,0.003125,-0.026975
-0.0221,-0.007025,0.001825
-0.00265,0.00785,0.025725
0.029975,-0.0203,0.038225
0.04156,-0.00142,-0.01142
-0.0075,0.0474,-0.022275
-0.00125,-0.006075,0.030725
0.00535,-0.043975,0.0029
0.013,-0.0332667,-0.0173
0.02016,0.00986,-0.03228
0.006375,0.01905,-0.012375
0.008175,0.00615,-0.009925
0.0164,0.02105,-0.0185
0.0158333,0.0203667,0.0205333
0.01366,0.00606,0.07652
0.00275,-0.0378,0.05915
0.014275,-0.049725,0.0237
-0.006875,-0.03205,0.06225
-0.009275,-0.0181,0.085525
-0.02805,-0.021075,0.078825
-0.035125,-0.0276,0.0596
-0.04045,-0.010075,0.0369
-0.025375,0.0139,0.003
-0.01385,0.00165,-0.00465
0.03748,-0.01914,0.02962
0.0616,-0.0322,0.0692
0.02875,-0.014925,0.08735
-0.0064,-0.00595,0.0895
0.006025,-0.0385,0.1081
0.06735,-0.033975,0.124025
0.018,0.020775,0.1046
-0.0376,0.059125,0.03045
-0.0404,-0.009725,-0.0423
-0.03575,-0.082075,-0.002725
-0.078875,-0.08185,0.012475
-0.0979,0.05385,-0.0437
-0.05715,0.1203,-0.061075
-0.00575,0.059475,-0.038975
0.033,-0.0284,-0.048075
0.03675,0.0394,-0.04135
0.05675,-0.0272,-0.0152
0.097875,-0.04455,0.002575
0.073325,-0.037425,-0.05145
0.0591,-0.0395333,-0.0639333
-0.0808167,0.0437667,-0.0212333
-0.1491,0.0796667,-0.0068667
-0.05916,0.03076,-0.06506
0.025375,0.000275,-0.093475
-0.0115333,0.0203333,-0.0891333
-0.0334,0.01376,-0.0691
0.022575,-0.02505,-0.023625
0.03845,-0.02995,-0.039225
-0.016325,0.032,-0.05135
-0.0474,0.0855333,-0.0235667
-0.01824,0.01616,-0.04182
0.0306,-0.044275,-0.069625
0.038375,-0.067475,-0.066125
0.0195,0.03855,-0.06425
0.032075,0.0464,-0.09065
0.031,0.04805,-0.072975
0.09265,-0.067925,-0.002575
0.067475,-0.077225,-0.02225
-0.0359,0.005525,-0.01115
-0.036925,0.03615,0.009775
0.02805,0.033725,0.036775
0.03055,0.04895,0.01345
-0.046275,0.009875,0.00045
-0.1027,-0.066225,0.123625
-0.102575,-0.082625,0.129775
-0.08944,-0.00854,-0.00764
-0.042075,0.016925,-0.09425
0.03135,0.05375,-0.02775
-0.034925,0.037975,0.021075
-0.0166667,0.0470667,-0.0436667
-0.01698,0.00674,-0.07872
0.079425,-0.07195,-0.047575
0.1033,-0.0771,-0.013825
0.085125,-0.053675,0.041025
0.0303333,-0.0013667,0.0693667
0.00436,0.02538,0.10508
0.01435,-0.02205,0.09315
-0.060375,-0.02515,0.066175
-0.14515,0.0138,-0.027425
-0.1802,0.007,-0.054475
-0.093725,0.004475,-0.015725
-0.008875,0.02335,0.03885
0.02755,0.0402,0.04995
0.02754,0.01026,-0.02528
0.0602,-0.0260667,-0.0714667
0.07298,-0.0204,-0.03238
0.04875,0.032225,0.0074
-0.012425,0.0372,-0.0238
0.027825,-0.0522,-0.052275
0.0441,-0.054,0.0035333
0.05606,-0.0348,0.05204
0.045975,-0.0142,0.011825
0.000175,0.023825,-0.056625
-0.0449,0.013325,-0.007025
-0.055225,0.0146,0.043075
-0.013975,0.03705,0.000275
0.042675,0.063875,-0.07275
0.03655,0.062425,-0.086425
-0.0088,0.00535,-0.064875
-0.0183,-0.02455,0.000775
-0.004625,-0.01445,0.031775
-0.000825,0.013875,0.021925
-0.0092,0.0093,-0.00025
-0.028525,-0.012325,0.005375
-0.0574,-0.06105,0.030925
-0.04868,-0.01576,0.08152
0.004375,0.009425,0.039
-0.030875,0.0392,0.040775
-0.09415,0.000625,0.01765
-0.1485333,0.0294333,-0.0044333
-0.14134,0.03634,-0.0581
-0.015925,-0.00065,-0.05755
0.076025,-0.03515,0.006825
0.13655,-0.025025,0.093725
0.1355667,0.0040333,0.1197667
0.09514,-0.01118,0.0647
0.06765,-0.047625,0.007275
0.070775,-0.049875,-0.01085
0.060825,-0.0264,-0.022275
0.030125,-0.00625,-0.019425
-0.001225,0.017175,-0.013225
-0.038875,0.051825,-0.002775
-0.0651,0.0341,0.04395
-0.0578,-0.005625,-0.015425
-0.039775,0.00045,-0.076225
-0.030825,-0.01095,0.020475
-0.0714,0.01282,0.01362
-0.0780667,0.0241333,-0.0985667
-0.01768,0.03758,-0.12268
0.03415,-0.03525,-0.05515
0.0629,-0.0733,0.02755
0.0517,0.00905,0.065025
0.007225,0.089375,0.03905
0.072175,0.004025,0.00745
0.0893667,-0.0436,0.0381
0.01058,-0.0388,0.04056
-0.073375,-0.00495,0.030375
-0.0498,0.029525,0.04835
0.00745,0.03365,0.054575
0.034725,0.031175,0.027925
0.038575,0.009325,0.01095
-0.0343,0.063525,0.047825
0.03745,-0.02565,-0.04045
0.026525,-0.041625,-0.017275
-0.01295,-0.026025,-0.014725
-0.00135,-0.029475,-0.033825
-0.03575,0.017275,-0.04525
-0.064625,0.0888,-0.072525
0.0316,-0.01115,-0.131325
0.027025,0.020825,-0.087
-0.00678,0.02888,-0.05014
-0.0971,0.052,0.038275
-0.059775,0.053025,-0.008225
0.042325,-0.079875,-0.015725
0.0459,-0.048725,-0.0067
-0.026775,0.038475,-0.0238
-0.044125,0.108325,-0.003025
0.0413,-0.014825,0.037625
0.01285,-0.049,-0.00235
-0.003575,-0.030375,0.011575
0.00095,-0.0,0.030375
0.021175,-0.0142,0.06805
0.0182,0.0031,0.04685
-0.000475,0.0578,-0.01635
0.0807,0.0218,-0.067675
0.05175,0.005725,0.02895
0.006625,0.0004,-0.0265
-0.04874,0.01572,-0.07132
-0.0625,0.0631,-0.03755
0.023175,-0.01645,-0.107875
0.137425,-0.080975,-0.155525
0.2211,-0.13545,-0.144125
0.1664,-0.09885,0.00585
0.02525,0.01855,0.09055
-0.087125,0.051825,0.103825
-0.104325,0.017725,0.1212
-0.12425,-0.006425,0.073275
-0.19495,0.0657,0.0909
-0.260875,0.09835,0.127825
-0.186325,0.043175,0.128625
-0.052425,-0.104825,0.07035
0.04105,-0.194625,0.043775
-0.03815,-0.084675,0.10295
-0.1082,0.033175,0.13465
-0.069525,0.0711,0.120325
0.01255,0.033025,0.034375
0.0419,0.023075,-0.0244
0.06715,-0.010325,0.077225
0.0933,-0.050525,0.096075
0.08668,-0.02936,-0.06178
0.0773,-0.00565,-0.11825
0.068025,-0.0168,-0.057425
0.0398,-0.0241,0.010275
-0.011475,-0.004325,0.0536
-0.01665,0.00465,0.10735
-0.05445,-0.02795,0.1453
-0.051375,-0.0299,0.162325
-0.0538,-0.02435,0.1435
-0.041525,-0.0353,0.129375
-0.069875,-0.038275,0.083975
-0.0644,-0.0155,0.03395
-0.0189,0.00815,-0.015475
0.026075,0.030225,-0.05045
0.016925,0.04115,-0.0469
0.007125,0.033075,-0.045625
0.0015,0.018025,-0.064025
0.020075,0.0188,-0.086525
0.024875,0.019225,-0.0895
0.0293,0.028475,-0.042475
0.0057,-0.000275,-0.01025
-0.03148,0.00152,-0.00648
-0.033475,0.000825,-0.0319
-0.0166,-0.003925,-0.0334
-0.03895,0.001575,-0.010425
-0.022725,-0.025925,0.026125
-0.028575,-0.01355,0.005525
-0.02415,0.038575,-0.0641
-0.02515,0.032,-0.037925
0.007375,-0.018175,-0.0081
0.003375,-0.01015,-0.020775
0.0236,0.0203,-0.0446
0.009225,0.012925,-0.03375
-0.019825,-0.008725,-0.016825
-0.015225,-0.002275,-0.025925
0.001275,0.0137,-0.01825
-0.012575,0.019075,-0.010675
-0.01305,0.007975,-0.00305
-0.012,-0.002825,-0.010475
0.000325,0.004475,-0.00825
-0.001775,0.0022,0.002225
-0.00845,-0.0035,-0.00395
-0.013225,0.02285,-0.006475
-0.01908,0.00466,-0.02442
-0.012725,-0.00375,-0.0493
-0.003525,-0.002075,-0.03555
-0.009925,0.000275,0.000725
0.006225,0.001325,0.0075
-0.001625,0.00435,0.000475
-0.009375,0.00675,-0.01225
-0.026475,-0.00025,-0.035875
-0.0156333,-0.0095333,-0.039
-0.02158,-0.01658,-0.02034
0.01235,-0.014825,0.0327
0.0203,-0.02165,0.051125
0.0387667,-0.0088333,0.0223333
0.01004,-0.00078,-0.07926
-0.0324,0.00275,-0.0457
-0.003675,-0.029425,0.072225
0.0454,-0.02845,0.00295
0.036,0.019,-0.098475
0.007875,0.031575,-0.0828
-0.00735,0.01235,-0.018875
0.00745,-0.011925,0.034625
0.0351,-0.00995,0.046375
0.0482,-0.005875,0.059625
0.01286,-0.01134,0.04066
0.005625,-0.01675,0.014075
0.02375,0.010175,0.021875
0.023475,0.021,-0.00215
0.008875,0.017225,-0.001425
-0.0044,-0.0184,0.0015
-0.0034857,-0.0213143,0.0163286
-0.009075,-0.013,0.009875
-0.012125,0.0046,-0.0294
-0.0105,0.008,-0.0369333
0.00106,0.00174,-0.023
-0.0072,0.011975,0.01085
-0.0154,0.006625,0.023425
-0.01295,-0.012975,-0.003575
-0.013325,-0.016125,-0.00775
-0.00955,-0.0147,-0.01405
0.00225,0.007725,0.007875
0.004325,-0.00095,0.0361
0.0092,-0.0091,0.010575
0.00535,0.021225,-0.0524
-0.00048,0.02704,-0.02292
-0.0167333,-0.0066333,0.0142667
-0.01046,-0.00908,-0.02292
0.01685,0.0124,-0.038675
0.0174333,0.0287333,-0.0171333
-0.0138,0.0153,0.01472
-0.0155,0.006575,0.011525
0.009575,0.010075,-0.001375
0.007075,0.0311,0.007425
-0.0068,0.0088,-0.005275
-0.0079,0.008125,-0.019325
-0.018,0.00895,-0.006
-0.01135,-0.00535,0.010225
-0.0275,-0.01285,-0.0002
-0.02495,-0.00265,-0.00755
-0.01555,0.0005,0.002575
-0.000525,0.018575,-0.01175
-0.002225,0.011525,-0.046525
-0.008475,0.015775,-0.040175
-0.001825,0.008375,-0.011925
-0.0071333,0.0013,0.0006
0.01046,0.01234,-0.01614
0.01,0.030125,-0.047625
-0.0016,0.0081,-0.02516
0.0007667,0.0005333,0.0024667
-0.00912,-0.01016,0.0058
0.019625,-0.03835,0.03185
0.009525,0.0,-0.012175
-0.019625,0.0472,-0.023075
0.001725,0.001475,0.02295
-0.005075,-0.034625,-0.010975
-0.00925,-0.009275,-0.023775
0.00515,0.011675,0.0278
-0.003575,0.0073,0.054275
-0.0065,-0.0264,0.047275
-0.0037,-0.009525,0.022775
-0.01385,0.0209,0.040125
-0.0135,0.025275,0.046175
-0.019175,0.028775,-0.00865
-0.008625,-0.002775,-0.008
0.003375,-0.0358,0.0379
-0.0134,-0.051625,0.0574
-0.01715,-0.00645,0.03775
0.0016,0.0114,0.00306
0.0109333,0.0187,0.0070333
-0.00182,0.00368,-0.00096
-0.01285,0.00425,0.015625
-0.013625,-0.000125,0.02785
0.014,-0.005575,0.01925
0.006975,-0.00995,0.006575
0.002375,-0.00465,0.009775
-0.0118,-0.008325,0.014225
-0.012175,-0.00895,0.018675
-0.0131,0.000325,0.0337
0.0165,-0.01005,0.04295
0.0093,-0.005525,0.007925
-0.0218,0.015175,-0.012475
-0.01935,-0.003725,0.044
-0.01845,-0.026675,0.0213
-0.0,-0.00105,-0.034575
-0.006325,0.036625,-0.004375
-0.00775,0.02175,0.0144
-0.019075,-0.02545,0.023525
-0.01795,-0.01075,0.0253
-0.000325,-0.0037,0.0446
-0.00642,-0.00146,0.04548
-0.009475,-0.006825,0.0309
-0.010275,-0.004925,0.05335
-0.00535,-0.007925,0.065175
-0.013725,-0.020725,0.0295
-0.013875,-0.009925,-0.002375
-0.0115,2.5e-05,-0.027075
-0.0007,0.013375,-0.03455
0.00685,0.01425,-0.0567
0.008875,0.020325,-0.0674
-0.014125,0.01595,-0.050625
-0.013,0.028625,-0.039575
-0.0181,0.019725,-0.0291
-0.007125,0.00955,-0.035325
0.009975,0.003575,-0.0471
-0.008675,-0.002225,-0.012075
0.000775,-0.0152,0.0513
0.006825,-0.044575,0.0509
0.00095,-0.01575,0.01385
-0.0176,0.01645,-0.043275
-0.005975,0.029325,0.01675
0.00854,-0.01808,0.03934
0.017,-0.0144667,-0.0059667
0.02094,0.01156,-0.04208
0.00315,0.0054,-0.01695
-0.00485,-0.00995,0.01805
2.5e-05,-0.004225,0.029525
0.025025,-0.005275,0.043075
0.00935,0.00335,0.032625
-0.004225,-0.00845,0.0057
-0.00075,0.000425,0.001325
0.013,-0.0049,-0.0118
-0.0056,-0.0158,-0.01085
0.0028,-0.0122,-0.00695
0.001875,-0.009125,0.015075
-0.00735,-0.011225,0.006425
-0.000275,0.0045,-0.010075
-0.00355,0.01565,-0.014975
-0.008575,0.01405,-0.008125
0.0009,-0.006325,-0.015775
-0.009275,-0.01455,-0.03315
-0.015675,-0.0078,-0.032225
0.003175,-0.00385,-0.01445
-0.0015,-0.01164,0.0136
0.010425,-0.027075,0.0296
0.02255,-0.02,-0.003625
-0.012475,0.025225,-0.08225
-0.025375,0.029125,-0.075825
0.01115,-0.02095,0.034375
0.017275,-0.031375,0.0289
0.0170333,0.0150333,-0.045
-0.001075,0.02195,-0.06005
-0.02112,-0.00312,-0.00628
0.0156,0.002825,-0.0044
0.02605,0.007225,0.017925
0.016275,0.0087,0.043925
-0.020825,-0.0107,0.0181
-0.0201,-0.017825,0.017925
0.003975,-0.01535,0.0312
0.000575,-0.012925,0.025525
-0.0245,-0.000725,0.0064
-0.007675,0.0065,0.002975
0.0055,0.012925,0.021075
-0.0079,0.008725,-0.002825
-0.01128,0.00524,-0.03104
0.0009,0.0074333,-0.0233333
-0.00348,0.00358,-0.00314
-5e-05,0.00135,0.00675
-0.00905,0.00855,0.004725
-0.026575,-0.004225,-0.009575
-0.005825,-0.005125,0.0071
-0.0021,-0.012075,0.05935
0.0092,-0.04175,0.0799
0.01265,-0.0241,0.031475
-0.01085,0.02645,-0.049275
-0.0126,0.026925,-0.036275
-0.013575,-0.013625,-0.016675
-0.0114,0.004075,-0.02805
0.01785,0.00835,-0.01905
0.002375,0.01145,0.010075
-0.017775,-0.00155,0.0203
-0.01495,-0.006375,-0.011625
0.0135,0.0205,-0.0008
0.0152,0.021475,0.03195
0.017425,0.0126,0.0216
-0.00174,-0.01148,0.00224
-0.003925,-0.013975,0.005475
-0.002075,-0.019925,0.01075
-0.009975,-0.01365,0.0104
0.006275,0.005725,0.022075
0.023275,0.008825,0.014825
-0.013725,0.0172,-0.023325
-0.0089,0.011575,-0.036825
-0.017325,0.008175,-0.00455
-0.0093,-0.008725,-0.006075
0.0025,-0.0018,-0.01875
0.01005,0.013275,-0.025075
-0.0124,0.0157,-0.03145
-0.009575,0.0116,0.014525
-0.0088,-0.00615,0.0379
0.033175,-0.037725,0.03195
0.004675,-0.0016,-0.011075
-0.0115667,0.043,-0.0207
-0.01522,0.00914,0.01334
-0.0342,-0.029325,0.008375
-0.0144,-0.01935,-0.030975
-0.0008,0.0136,-0.01054
-0.0104,0.0254,0.0302
0.0008,0.014125,0.006725
0.00865,0.0119,0.014575
-0.007425,0.01405,0.0475
-0.0114,-0.017025,0.038275
-0.005775,-0.017775,0.010275
0.019975,-0.0209,0.012475
0.00425,-0.008975,0.01905
-0.005075,-0.005975,0.02175
0.0165,0.01015,0.023075
0.027625,0.005425,0.019725
-0.0011,-0.01285,-0.010725
0.00175,-0.033225,-0.0428
0.0237,-0.017275,-0.0128
0.0358,0.02625,0.0076
0.0267,0.0505,-0.004875
-0.001,0.0076,-0.0189
-0.0229,-0.02585,-0.0194
-0.054375,-0.0297,0.007425
-0.041875,-0.011625,0.054025
0.04538,-0.01994,0.06486
0.121775,0.009175,0.040925
0.1001,0.048175,0.021325
0.06575,0.046175,0.04875
0.02625,-0.0086,0.0383
-0.00445,-0.0303,0.003575
-0.05495,-0.0333,-0.02015
-0.151375,-0.035625,-0.007
-0.14975,-0.011275,-0.005725
-0.08975,0.009625,-0.028925
-0.0111,0.0379,-0.024625
-0.011325,0.014975,0.0048
-0.03045,0.001275,-0.0345
-0.075025,0.034675,-0.046675
-0.04875,0.0319,-0.011475
-0.01395,0.006975,0.00155
0.037125,-0.020825,0.01105
0.051275,-0.023,0.008875
0.0072,-0.01375,-0.001375
-0.009,-0.015575,-0.036925
-0.0315,-0.00615,-0.046925
-0.005125,-0.00075,-0.025725
0.01482,0.00016,-0.00096
-0.00715,0.014025,-0.029525
-0.0166,0.01065,-0.04205
0.008475,0.008925,0.02085
0.075675,0.00735,0.059525
0.17015,-0.0413,0.0129
-0.0546,0.034975,0.048225
-0.047275,-0.058275,0.007025
0.00245,-0.024925,-0.048875
0.03185,0.0289,0.028725
0.036825,0.011025,0.077425
-0.014825,-0.011325,0.025325
-0.0071,-0.006525,-0.06535
0.0066,-0.00685,-0.08665
-0.006875,-0.00175,-0.051675
0.004425,-0.01235,-0.028025
0.03625,0.005475,-0.015075
-0.003475,-0.00965,-0.001825
-0.03065,-0.028625,-0.02885
0.002475,-0.02295,-0.0334
0.052475,0.00315,-0.00585
-0.0028,0.02482,0.02234
-0.02855,0.02985,-0.033975
-0.066525,-0.01815,-0.0402
-0.050925,-0.03655,-0.025325
-0.054225,-0.021775,-0.018125
-0.0648,0.0191,-0.0211
-0.051525,0.036,-0.03735
-0.0432,0.016425,-0.03895
0.027825,0.02935,-0.035725
0.05235,0.0393,-0.0061
0.03385,0.019525,0.01345
0.016875,-0.008925,0.01055
0.027525,-0.0103,0.05805
0.052425,-0.0523,0.06855
-0.00275,-0.0866,0.058825
-0.0434333,-0.0081667,-0.0291333
-0.04832,0.066,-0.02236
0.01805,-0.000775,0.0904
-0.024425,-0.027375,0.049425
0.024275,0.014675,-0.063025
0.087075,0.039125,-0.0616
0.029575,0.013325,-0.012975
-0.027175,-0.0149,-0.010875
0.0436,0.03144,0.03322
0.065925,0.0162,0.050425
-0.126325,-0.057875,0.005875
-0.1336,-0.050775,-0.05925
0.0105,0.001975,-0.022875
0.11445,0.06765,-0.00465
0.09095,0.089925,-0.00285
0.0171333,0.0570667,0.0214667
0.00214,-0.0465,0.01482
0.03285,-0.0984,0.053125
0.026625,-0.071675,0.0925
-0.025975,-0.0324,0.08305
-0.082475,0.011475,0.009075
-0.070675,0.032625,-0.0487
-0.0257,0.065375,-0.024675
0.017825,0.05915,-0.0004
-0.0015,0.024075,0.00425
-0.04345,-0.011075,0.014075
-0.0375,0.005875,0.023725
-0.0802,-0.029375,0.0182
-0.0694,-0.04628,-0.02012
-0.102175,-0.0433,-0.068075
-0.098675,-0.058025,0.027825
-0.054025,-0.034425,0.044525
0.023025,0.04525,-0.01215
0.0614,0.087575,-0.0394
0.0034,0.030675,-0.032775
-0.058875,-0.0317,-0.0231
-0.021375,-0.02795,0.015175
0.038825,0.018475,0.070725
0.088625,0.025325,0.0844
0.075175,-0.020775,0.03775
0.015075,-0.016475,-0.024025
-0.023675,-0.0216,-0.0054
-0.03585,-0.0093,0.0172
-0.02845,0.012325,0.003175
-0.040125,0.030225,-0.004925
-0.074275,0.0264,-0.0355
-0.07575,0.00665,-0.061375
-0.0473,-0.0293,-0.05325
0.000375,-0.024725,-0.002075
0.02535,0.029,0.0288
0.0239,0.035275,-0.000675
0.02642,0.01326,-0.02398
0.08465,0.011175,0.011825
0.100125,-0.0204,0.06655
0.09915,-0.01965,0.0808
0.031325,-0.025275,0.06855
-0.004475,-0.0622,0.039925
0.019,-0.0727,0.0159
0.0083,0.005525,-0.0296
0.0096,0.05535,0.020075
0.001,0.022325,0.057575
-0.02085,-0.0138,-0.028725
-0.03575,0.0101,-0.074275
-0.016775,0.03115,-0.0261
-0.016925,0.016375,0.01155
-0.000975,0.006175,0.004225
0.01295,0.001425,-0.004475
-0.00705,-0.007225,0.00825
0.009675,-0.0129,0.0154
0.010925,0.000325,0.009275
0.004625,-0.0042,0.022175
-0.0003,-0.01725,0.039925
-0.0129,-0.01552,0.02016
-0.000725,0.011825,0.012825
0.015475,-0.011625,0.01285
0.020025,-0.00025,0.007525
0.01885,0.0135,-0.011175
-0.00485,0.008475,0.001675
-0.014825,0.0089,0.02215
-0.023925,-0.0044,0.023675
-0.0088,0.0037333,0.0063
-0.0002,-0.00642,0.00454
-0.02475,-0.007025,-0.0008
-0.01275,0.003375,-0.0379
-0.01025,-0.0189,-0.036325
-0.012225,-0.0398,-0.01795
-0.03565,-0.032225,-0.004125
-0.02675,-0.007575,0.020125
-0.023425,0.030875,-0.0056
-0.004575,0.081,-0.0573
0.05715,0.083725,0.018575
0.102275,0.032275,0.078425
0.058825,0.019175,0.001825
0.01826,0.0058,-0.04058
-0.049175,-0.028625,0.0178
-0.071575,-0.0701,0.048
-0.045475,-0.049075,0.031425
-0.016125,0.003075,0.006975
-0.00645,0.0244,0.014525
-0.025475,-0.00195,-0.0143
0.009425,-0.007975,-0.005275
0.0318,-0.01095,0.04305
0.008375,-0.007925,0.04205
-0.01875,-0.006075,-0.0078
-0.005825,0.003975,0.001725
-0.0067,0.007,0.0302
-0.0146,0.00095,0.0042
-0.0292,-0.00465,-0.021925
-0.015525,0.0121,-0.018225
-0.006775,-0.00275,-0.01445
-0.0141,0.001025,0.017475
-0.02715,-0.020125,0.0548
-0.017575,-0.019175,0.0649
5e-05,-0.0104,0.052725
0.0036,0.00718,0.00514
-0.0038333,0.0120667,-0.0205667
-0.00374,0.01432,-0.01444
-0.028875,-0.016375,0.0005
-0.01245,-0.012025,0.02405
0.011675,-0.008875,0.026725
0.0150333,0.0014667,-0.0295667
-0.01102,0.03894,-0.07256
-0.01685,0.0066,-0.020475
-0.0302,-0.0271,-0.021475
-0.0017,-0.00055,-0.0392
0.024375,0.011925,-0.041025
0.004825,0.01405,-0.013
-0.0036,0.01555,-0.0086
0.004125,0.005025,-0.00745
0.018425,0.009175,0.015025
0.019175,0.0046,0.0274
0.01215,-0.0094,-0.0035
0.008525,-0.017325,-0.028525
0.0007,-0.01385,-0.017775
-0.01105,-0.0128,-0.0031
-0.022975,-0.000375,-0.015975
-0.010225,0.002625,-0.000225
0.01282,0.01558,-0.00458
0.004,0.0168,-0.042
0.005375,0.017725,-0.042625
-0.0096,-0.0021,-0.0241
-0.02022,-0.01252,0.01742
-0.0188,-0.00715,0.026675
-0.010825,-0.003125,0.012175
-0.010325,-0.002025,0.0063
-0.01085,0.007175,-0.005225
-0.006175,0.01635,-0.03335
-0.008125,0.01175,-0.04155
-0.01495,-0.00435,0.012925
0.012425,-0.032,0.046425
0.022925,-0.0368,0.036525
0.003025,-0.00675,-0.04645
-0.0216,0.02415,-0.0403
-0.01605,-0.01225,0.08175
0.015175,-0.0494,0.049275
0.028275,0.00105,-0.06605
0.017075,0.0172,-0.082675
-0.00826,0.00822,-0.03148
-0.0073,0.0072,-0.028275
0.045775,0.006225,-0.016575
0.0532,0.01545,-0.024025
0.024025,0.003875,-0.017525
0.007925,0.006725,-0.016175
-0.01155,-0.0084,0.0076
-0.01495,-0.01245,0.029775
0.005025,-0.027675,0.0472
0.014975,-0.02165,0.03295
0.0041,0.004025,0.048
-0.00355,-0.008025,0.04575
-0.0179,-0.000175,0.004125
-0.019775,-0.002275,-0.0076
-0.018775,0.0056,-0.02165
-0.00415,0.015025,-0.021125
-0.00315,0.00995,-0.02825
0.00225,0.014175,-0.0091
-0.008625,-0.006375,-0.01395
-0.003575,-0.003625,-0.027575
-0.0168,0.013975,-0.041975
-0.00632,0.01004,-0.02056
-0.0161667,0.0034,0.0191333
0.00184,-0.01436,0.05602
-0.01325,0.00045,0.011
-0.019925,0.0305,-0.0617
-0.004275,0.0076,-0.017025
-0.00845,-0.01755,0.000725
-0.017275,-0.02265,-0.03835
0.014575,0.0104,-0.0337
0.005025,0.01425,-0.000125
-0.010025,0.02305,0.0052
0.02365,0.0142,-0.00115
0.03045,0.002975,0.00485
-0.001375,0.01415,0.02605
-0.01205,-0.008325,0.0171
-0.00485,-0.02575,0.0016
0.0081,-0.016725,0.030125
-0.009675,-0.01105,0.04555
-0.01755,-0.00975,0.012975
0.00295,0.00995,0.001425
-0.00355,0.010225,-0.008125
-0.01042,0.01712,-0.02262
-0.0042667,0.0042333,-0.0219
-0.01008,-0.00538,-0.0214
-0.015975,0.003575,-0.000925
-0.00865,0.00865,0.00755
-0.0281,0.00165,0.012525
-0.00975,0.001175,0.010125
-0.0081,-0.004175,-0.00875
-0.006,-0.009475,0.003375
0.005175,-0.010825,0.009725
0.009,-0.001325,0.006675
0.029125,-0.012375,0.025325
0.01405,0.005125,-0.01545
-0.023375,0.05445,-0.05095
-0.022925,0.0072,0.02445
-0.011325,-0.048475,0.011775
0.006475,-0.0278,-0.0114
0.008675,0.03135,-0.008575
-0.00895,0.0384,0.013375
-0.0089,0.007625,0.0424
0.00625,-0.0001,0.0416
0.0218,0.00526,0.06666
0.01075,0.0187,0.070375
0.003225,0.01105,-0.0164
0.00755,0.0258,-0.083875
0.02975,0.032625,-0.051925
0.026725,-0.00405,-0.041775
0.011825,-0.013425,-0.0308
0.007325,-0.015575,-0.000325
-0.0059,-0.014025,0.012
-0.0275,-0.01835,0.036925
-0.0188,-0.020375,0.042875
-0.03935,-0.02955,0.011725
-0.04515,-0.0256,-0.019275
-0.057825,0.00405,-0.03145
-0.0427,0.01,-0.03695
-0.035575,-0.001,-0.031375
-0.02865,-0.023575,0.0041
-0.020525,-0.019775,0.0286
-0.009525,0.002975,0.050175
-0.00615,-0.007825,0.05255
0.011875,-0.0333,0.07615
-0.00412,-0.01718,0.04606
-0.003025,0.013675,0.013925
0.01745,-0.014325,0.062825
0.002475,-0.001075,-0.0139
0.0091,0.038575,-0.08205
0.021,0.03305,-0.0438
0.01285,0.023625,0.0425
0.007325,-0.0127,0.0883
0.0119,-0.045725,0.073625
-0.00735,-0.018775,0.083825
-0.02645,-0.00555,0.066125
-0.042875,-0.007675,0.02285
-0.019,-0.019275,0.011775
-0.0266,-0.01855,0.035725
-0.017725,-0.013525,0.02845
0.021975,0.007125,0.0107
0.034425,0.007225,0.01005
0.03465,0.004225,0.019125
0.019575,0.00865,0.0181
0.023175,0.0009,0.021575
0.01605,-0.015075,0.010625
0.00315,-0.0227,0.00175
-0.01104,-0.0127,0.00982
-0.027325,0.012925,0.004175
-0.03345,0.030825,-0.055625
-0.0125,0.04715,-0.10675
-0.007875,0.033525,-0.07245
-0.007225,0.004925,-0.0298
0.0169,-0.0334,0.01715
0.01525,-0.0184,-0.002675
-0.020425,0.0132,-0.028425
-0.022125,-0.00095,0.02855
-0.015525,-0.034575,0.037
0.005125,-0.026425,-0.007325
-0.009525,0.007525,-0.0648
-0.0033,0.010025,-0.07175
-0.004375,0.01435,-0.04155
0.0018,0.02755,-0.01145
0.012625,0.010875,0.01335
0.01815,-0.003675,0.01565
-0.019775,-0.035,0.00805
-0.01155,-0.014125,0.002775
-0.021775,0.003525,0.023125
-0.00646,-0.0027,0.01596
0.0022667,0.0041667,0.0038667
-0.00102,0.00618,-0.01794
-0.0048,0.0041,-0.021525
0.001525,0.0103,-0.025
-0.00215,0.015375,-0.017225
0.012275,0.008625,-0.0076
0.00105,-0.001325,-0.00655
-0.019025,-0.00755,-0.005675
-0.02455,-0.016925,-0.008325
-0.01745,-0.0198,-0.006775
-0.016725,-0.01175,0.007325
-0.015325,-0.002975,0.022225
0.0208,-0.012975,0.025675
0.02635,-0.000725,-0.01975
-0.0064,0.039,-0.1001
-0.036425,0.03005,-0.045225
-0.010725,-0.037625,0.076475
0.00935,-0.049075,0.046925
0.009425,0.009225,-0.08325
-0.0058,0.01895,-0.1087
-0.005725,0.001925,-0.039425
0.0037333,0.0005333,-0.0099333
0.02036,0.0258,0.01576
0.014475,0.01675,0.028975
0.02414,0.00396,-0.00126
-0.0081333,-0.0153667,0.0086
-0.010775,-0.027375,0.033475
-0.01418,-0.01816,0.035
-0.020775,0.0003,0.022775
0.0062,0.0103,0.011925
0.01025,0.016425,-0.009775
0.00035,0.011075,-0.03885
-0.0084,0.01685,-0.034075
-0.0095,0.009875,0.003725
-0.0072,-0.01345,0.01395
-0.02035,-0.008975,0.005025
-0.0166,0.0001,0.0105
-0.01825,-0.0070333,0.0092333
-0.025275,0.0005,-0.008375
-0.01655,0.001025,0.0236
-0.005125,-0.016825,0.038525
0.01675,-0.028625,0.034725
0.00595,-0.00615,-0.021725
-0.01434,0.03182,-0.04804
-0.027225,-0.021225,0.046425
-0.0161667,-0.0368667,0.0412
0.0058,0.00828,0.00436
0.002025,0.028675,-0.021425
-0.01445,0.0132,-0.00445
0.00325,0.011025,-0.000775
0.02045,0.018325,0.0209
0.023725,0.00315,0.0376
0.010375,-0.008675,0.0198
-0.004325,-0.0142,0.01815
-0.010075,-0.015525,0.035375
-0.01585,-0.02085,0.05405
0.003575,-0.01325,0.052375
0.008525,0.002725,0.060225
-0.0015,0.01675,0.01475
0.003975,0.0157,-0.0459
-0.0139,0.0289,-0.08315
-0.03215,0.016175,-0.06965
-0.036925,-0.005275,-0.016075
-0.018325,-0.026175,0.02805
0.01072,-0.01834,0.02
0.01325,0.0013,0.01445
0.00685,0.006175,0.0153
-0.003125,-0.001725,0.02715
0.003875,-0.015075,0.042
0.02035,-0.0171,0.024225
-0.01485,0.033225,-0.0443
-0.018025,0.0384,-0.03655
0.002125,-0.033025,0.012025
0.00295,-0.03915,-0.016825
0.0031,0.011075,-0.059125
0.00745,0.030275,-0.0384
-0.000325,-0.00145,0.01125
0.015625,-0.021375,0.037025
0.025575,-0.0087,0.038925
0.018625,-0.0041,0.030425
-0.0246,-0.011075,0.013825
-0.021025,-0.01335,-0.002
0.005125,-0.0147,0.0302
-0.006,-0.008675,0.075225
-0.0007,0.0037,0.0428
0.005675,0.013175,-0.00895
0.003175,0.029,-0.0417
-0.016725,0.019675,-0.0355
-0.0114,0.0147,-0.019575
-0.0102,0.00065,0.00765
-0.0084,-0.004875,0.028725
-0.00785,0.001825,0.002275
-0.008125,0.00575,-0.0163
-0.0179,0.0035,-0.01665
-0.020725,-0.01015,-0.010575
-0.00845,-0.0127,0.017
0.0155,-0.03105,0.0402
0.044875,-0.02225,0.017575
0.010425,0.04475,-0.049875
-0.000675,0.041675,-0.003125
0.011225,-0.02725,0.044725
0.005125,-0.03385,-0.003525
-0.002525,0.017275,-0.0591
-0.0168,0.0357,-0.0463
-0.0242,0.010775,0.008975
0.00765,0.000575,0.01875
-0.002675,0.033275,0.021225
0.0035,0.0225,0.02376
0.0052,-0.0040333,-0.0133
0.00466,-0.01018,-0.01328
-0.0027,-0.01895,0.0469
-0.023725,-0.033775,0.05325
-0.02715,-0.015125,0.024075
-0.028225,0.007425,-0.0036
-0.009375,0.0126,-0.001775
0.0149,-0.0025,-0.003025
0.020775,-0.005475,-0.02115
0.0259,-0.00745,-0.0239
0.000475,0.013575,-0.03
-0.009925,0.01295,-0.0381
-0.02065,0.0132,-0.026025
-0.0127,0.0079667,-0.0336333
-0.00416,0.0088,-0.0151
0.003225,0.006425,0.024375
0.024575,-0.00865,0.03115
0.0158,-0.0138,0.0001
-0.022375,0.0139,-0.043225
-0.01925,-0.001025,0.00335
-0.00452,-0.03098,0.04814
0.014425,-0.00115,0.0084
0.009125,0.03465,-0.038975
-0.010675,0.01835,-0.017825
-0.013375,-0.010725,0.00055
0.005225,-0.0064,0.009925
0.01,0.011675,0.032925
0.012625,-0.007175,0.0387
0.0046,-0.02515,0.020025
-0.0071,-0.01265,0.0074
-0.019275,-0.00565,0.010525
-0.035025,0.00875,0.00685
-0.0125,0.00025,-0.0117
0.00915,0.00575,-0.0223
0.00325,0.00335,-0.00595
-0.01675,-0.006425,0.004425
-0.02075,-0.008725,0.017925
-0.0167,-0.010725,0.013125
-0.0104,0.00795,-0.014125
-0.0052,0.00295,-0.0275
-0.00325,0.0042,-0.017675
-0.008025,0.02555,-0.005275
0.00564,-0.01412,0.02438
0.0064,-0.0277333,0.0536333
0.029375,-0.0334,0.033525
0.00994,0.01918,-0.05048
-0.019925,0.0349,-0.068775
-0.011475,0.005875,0.067375
0.012575,-0.035675,0.061275
0.003375,-0.01535,-0.05895
-0.0106,-0.00975,-0.0795
-0.019725,-0.00405,-0.035125
-0.0057,-0.000375,-0.0041
0.01345,0.0181,-0.0117
0.0242,0.014675,-0.02075
-0.008825,0.005725,-0.026975
-0.006225,-0.0004,-0.023075
-0.0096,-0.0144,-0.007325
-0.0063,-0.019475,0.012075
-0.000125,-0.02545,0.01895
0.00275,0.003475,0.01955
-0.009275,0.017475,0.009575
-0.010975,0.003375,-0.008125
-0.02214,-0.00886,-0.02426
-0.00775,-0.012575,-0.025675
0.002575,0.00935,-0.003825
-0.002725,0.026275,-0.000625
-0.01015,0.0127,-0.000775
-0.009075,-0.00885,-0.018725
-0.01875,-0.003175,-0.002225
-0.0131,-0.013,0.043925
0.010925,-0.0377,0.05775
0.031625,0.00085,0.0085
-0.0096,0.041975,-0.071925
-0.009675,0.03375,-0.036725
-0.000875,-0.0305,0.024675
0.00475,-0.030075,0.000975
0.01155,-0.003775,-0.0321
-0.0019,-0.00635,-0.003375
-0.00495,-0.002075,0.047675
-0.0011,-0.00435,0.0563
0.004,0.0154,0.047925
0.0005,0.0065,0.0476
0.017475,-0.007775,0.02875
0.0213,-0.00495,0.014575
0.00632,-0.0046,-0.00572
-0.0044,0.0020333,-0.0067667
-0.00232,0.01442,-0.0207
0.00915,0.022175,0.009525
-0.00465,0.018875,0.00785
0.007375,-0.0057,-0.024575
0.0128,0.0029,-0.030375
0.017375,-0.002075,-0.004075
0.00615,-0.000675,0.02335
-0.001525,-0.007475,0.015675
-0.01545,0.01285,-0.00415
-0.013975,0.0139,-0.03115
-0.0065,0.0056,-0.01505
-0.004425,-0.009325,0.008225
0.03605,-0.01695,0.0281
0.009125,0.004175,-0.0074
-0.03185,0.034975,-0.04625
-0.0332,0.005425,0.0054
-0.01255,-0.02425,-0.006075
0.0064,-0.006175,-0.060075
0.02706,0.02324,-0.06328
-0.0081,0.026375,-0.0331
-0.0054,0.01245,-0.0108
0.01985,0.019125,0.0068
0.01195,0.018325,0.0361
0.001125,-0.02745,0.034325
-0.00265,-0.029625,0.005125
0.011325,-0.0057,0.0032
0.0018,0.004825,-0.001525
0.001825,-0.007475,-0.024075
0.003,0.001075,-0.00645
-0.0064,0.006325,-0.001575
-0.0235,0.021925,0.004825
-0.010475,0.013675,-0.018175
-0.008925,-0.001725,-0.01965
0.009225,-0.00015,-0.01715
0.006675,-0.0085,0.003375
0.025275,0.01105,-0.007025
-0.0019,0.00855,-0.02285
-0.0387,-5e-05,0.00485
-0.05292,-0.0087,0.03704
-0.04365,-0.03465,0.03785
-7.5e-05,-0.046725,0.03635
-0.00195,0.00235,-0.022575
-0.004925,0.057975,-0.072725
0.0249,0.030725,-0.0132
0.03025,-0.015025,-0.010975
-0.007875,0.0014,-0.058925
-0.041325,0.05025,-0.046425
-0.0313,0.0283,7.5e-05
0.0036,-0.026,0.026175
0.0086,-0.04305,0.044775
-0.004175,-0.0224,0.076125
-0.0131,-0.020125,0.086175
-0.03565,-0.0089,0.024525
-0.01795,0.006175,-0.015175
-0.021,-0.022625,0.02075
-0.003625,-0.04025,0.0419
0.0223,-0.05065,0.042025
0.003375,-0.025475,0.0344
-0.0087,0.00905,-0.018575
-0.01056,0.06868,-0.07346
-0.004675,0.088325,-0.06655
-0.002825,0.06845,-0.029625
0.0173,0.0131,0.02865
0.00175,-0.06025,0.061375
-0.02245,-0.0983,0.091225
-0.042725,-0.0519,0.0877
-0.03305,-0.020975,0.045025
-0.01935,0.03215,0.017125
-0.004475,0.0291,0.019675
0.0257,-0.002825,0.05615
-0.015425,0.017475,0.03175
-0.071275,0.0367,-0.008925
-0.039025,-0.01945,0.067475
-0.0198,-0.08655,0.05805
0.0005,-0.055125,-0.0034
0.00155,-0.014875,0.031925
-0.0118,0.008875,0.089225
-0.010825,0.01205,0.08975
0.000425,0.0461,0.0398
0.024425,0.039325,0.012625
0.030575,-0.010225,0.0163
0.02545,-0.0546,0.020925
0.0218,-0.04514,0.01128
0.01725,-0.020475,0.0402
0.00205,0.0063,0.01665
-0.02155,0.0216,-0.005625
-0.03175,0.03425,0.0017
-0.024325,0.0141,0.011325
-0.008425,-0.0079,-0.0219
0.005375,-0.017125,-0.06005
0.010075,0.0262,-0.08475
0.010225,0.0554,-0.09065
-0.0021,0.0413,-0.075
0.0022,0.00405,-0.03065
-0.0277,-0.011225,0.00715
-0.02405,-0.0367,0.017625
-0.02015,-0.018475,0.00705
-0.03715,0.018725,-0.0107
-0.023925,0.033375,-0.0046
-0.0089,-0.0028,0.007925
0.01045,0.00995,-0.00535
-0.0118,0.010025,-0.06155
-0.023,-0.011,-0.010975
-0.0077,-0.0386,0.040375
-0.00085,-0.00545,-0.02225
-0.006425,0.0313,-0.080025
-0.020975,0.015925,-0.053925
-0.0281,-0.00458,-0.0067
-0.0043,0.004975,0.010025
0.02335,0.02535,0.00555
0.0234,0.010375,0.002425
0.010425,-0.011325,-0.0173
0.00435,-0.021075,-0.0169
-0.002675,-0.00035,-0.01355
-0.009525,-0.001375,-0.008775
0.00075,0.001125,0.000275
0.01205,0.0009,-0.011475
-0.006425,0.006525,-0.017225
-0.02165,-0.005775,-0.0179
-0.01105,-0.011925,-0.0109
-0.010525,-0.007425,-0.0044
0.000275,0.0071,0.0096
-0.021175,-0.002125,0.019725
-0.015025,-0.019175,-0.012875
-0.0119,-0.011475,-0.030025
-0.00795,0.000525,-0.0387
-0.0094333,-0.0105333,-0.0434667
0.0045333,0.0059,-0.0194167
0.029125,-0.02905,-0.0144
0.022375,0.000425,-0.042325
-0.0333,0.01835,-0.09975
-0.046875,-0.002575,0.0038
0.012275,-0.03005,0.104925
0.03865,0.01045,-0.010925
0.01255,0.0463,-0.10975
-0.00925,0.016475,-0.067525
-0.0165,-0.0202,0.0072
-0.01345,-0.01295,0.027825
0.00725,0.01165,0.024025
-0.00995,0.003375,0.024525
0.003,-0.012975,0.019425
0.019525,-0.0116,0.00825
0.020425,-0.011825,0.008025
0.010975,0.0104,0.003125
0.007725,0.0282,0.00225
0.00285,0.00365,0.000825
-0.004125,-0.025675,0.00735
0.01198,-0.01312,-0.00218
0.01955,-0.005625,-0.0128
0.0182,0.01205,-0.016675
-0.000525,0.017225,0.0057
0.0084,0.0141333,0.0274667
0.00992,-0.01076,0.07128
-0.0098,-0.042025,0.107425
-0.018925,-0.034775,0.12015
0.005525,-0.038625,0.08965
0.02485,0.01855,0.060775
0.029875,0.0247,0.05485
0.045975,-0.01195,0.07405
0.020375,-0.02705,0.046275
-0.018225,-0.01525,0.0246
-0.0262,-0.0175,0.0679667
-0.02804,-0.03738,0.05904
-0.013,0.025225,-0.025075
0.00355,0.046125,-0.043675
0.01575,0.03245,-0.02285
-0.01455,0.002675,7.5e-05
-0.0287,-0.020975,0.0301
-0.02544,-0.00074,0.05304
-0.00945,0.00285,0.0703
-0.010875,-0.01435,0.023275
-0.0225333,-0.0248667,0.003
-0.02382,0.01012,0.00802
-0.0251,0.002125,0.0129
-0.0114,-0.01845,-0.015925
-0.012025,0.002175,-0.018225
-0.0148333,0.0026667,-0.0270667
-0.0194,-0.00426,-0.03824
0.013275,0.00255,-0.05635
0.04115,-0.011425,-0.070725
0.0341,0.011775,-0.065975
0.0194,0.0319,-0.094275
-0.017425,0.052275,-0.093575
-0.03545,0.05745,-0.0465
-0.063275,0.022675,0.01815
-0.070575,-0.02935,0.056075
-0.033325,-0.042375,0.061025
-0.02045,-0.0403,0.0639
0.010025,-0.0165,0.05565
0.003825,0.0236,0.005225
-0.04292,0.0464,-0.07726
-0.03715,0.0023,0.00825
-0.0493,-0.02755,0.0066
-0.03235,0.00985,-0.01055
-0.0158,0.0311,0.008575
-0.0263,0.03875,0.005775
-0.00045,-0.012525,-0.01545
0.028875,-0.0117,-0.012675
0.03245,0.02885,0.000175
0.016025,0.0284,0.00605
-0.005925,0.033025,-0.0206
-0.01265,-0.0055,-0.034825
-0.0112,-0.0401,0.005625
-0.004225,-0.039625,-0.006425
0.017275,-0.004175,0.005075
0.0134,0.030175,0.02155
0.006775,0.01905,0.008025
0.000625,-0.0041,-0.011475
-0.010525,-0.01215,-0.022275
0.002075,0.0076,-0.01145
-0.00625,0.0179,-0.00985
4e-05,0.01096,-0.0169
-0.025025,0.006275,-0.003075
-0.00995,-0.00745,0.010375
0.000575,-0.00385,0.003825
0.00435,-0.000325,-0.008425
0.020725,-0.00045,-0.011025
0.024875,-0.008325,-0.0134
0.040725,-0.023025,0.010525
-0.0061,0.007275,-0.02615
-0.035975,0.023275,-0.0346
-0.00375,-0.0024,0.02915
0.00415,-0.0216,-0.01295
0.010275,0.0129,-0.058375
0.0166,0.0272,-0.022275
0.01405,0.005175,0.004125
0.026225,-0.0272,-0.01525
0.032775,-0.015025,-0.003325
0.0076,0.013775,0.014325
-0.0014,0.02135,0.036825
-0.02045,0.0356,-0.013
-0.05155,0.04425,-0.010725
-0.06748,0.01724,0.04282
-0.085825,0.011075,0.0512
-0.11205,-0.02155,0.046525
-0.12665,-0.03875,0.057875
-0.11805,-0.00515,0.03925
-0.120125,0.052125,0.04225
-0.110025,0.0846,0.04125
-0.086225,0.0728,0.0102
0.035575,-0.028225,-0.04715
0.276725,-0.17775,-0.095075
0.350875,-0.13645,-0.057525
0.1998,-0.012825,-0.00855
-0.01015,0.062725,0.008275
-0.0143,0.04795,0.026525
0.100775,0.01605,0.03085
0.325875,-0.080175,0.024475
0.373425,-0.056475,0.064425
0.06905,0.137125,-0.045425
-0.076525,0.08705,-0.170275
-0.0771,0.027025,-0.114425
-0.0183,-0.0453,-0.0179
0.01195,-0.0767,0.032575
-0.06718,-0.00832,0.0334
-0.129425,-0.001175,0.00315
-0.145625,-0.0049,0.0205
-0.1423,-0.001325,0.03195
-0.13005,0.010925,0.048025
-0.11015,-0.0356,0.015825
-0.095925,-0.06025,-0.027625
-0.1224333,-0.0267,-0.0359333
-0.10048,0.03954,-0.02286
-0.0139,0.0665,-0.013925
0.0537,0.01595,-0.034625
0.020325,-0.036975,-0.024725
-0.011275,-0.08395,-0.01605
-0.007125,-0.0526,0.02035
0.056725,0.051475,0.00715
0.0737,-0.02545,-0.0586
0.07855,-0.02725,-0.0873
0.065775,-0.0179,-0.06365
0.0384,0.0083,-0.002875
-0.043025,0.0366,0.056575
-0.06815,0.027075,0.0932
-0.02934,0.01302,0.0941
0.0241667,-0.0189,0.0691333
0.03114,-0.05566,0.0642
0.03645,-0.059175,-0.00655
0.0173,-0.014,-0.055175
0.004075,0.03225,0.02145
0.0121333,0.0092333,0.0653333
-0.00652,0.00558,0.0134
-0.0458,0.01565,-0.009025
-0.05285,0.01795,0.043425
-0.0422,0.003425,0.0384
-0.0104667,0.0111667,-0.0143333
-0.15884,0.15978,-0.66206
0.2982,-0.095475,0.4706
0.24035,-0.26995,0.848575
-0.0386667,-0.0993,0.2633667
