accx,accy,accz
0.0026,-0.0327,-0.0180333
-0.00764,-0.01954,-0.01002
-0.018075,-0.00335,0.002975
-0.0143,0.014075,0.021225
0.004325,0.010375,0.03145
0.0043,0.00075,0.032425
0.007325,-0.0135,0.022525
-0.006575,-0.011575,0.026675
0.0086,0.036575,0.007675
0.01035,0.033475,-0.01215
-0.004475,0.0004,-0.027325
-0.0176,-0.00445,-0.005325
-0.03025,0.0082,0.01105
-0.02585,0.006,0.0224
-0.009975,-0.006325,0.01475
-0.03275,-0.006275,-0.031925
-0.036125,-0.0056,-0.005625
-0.020675,-0.0384,0.0837
-0.019425,-0.042575,0.061425
-0.0179,0.0312,-0.05604
-0.0136,0.0266667,-0.0558333
-0.01448,-0.00324,0.02028
-0.01625,-0.02155,0.01215
0.02075,0.016175,0.02635
0.02985,0.0204,0.027975
0.0186,0.0158,0.017225
-0.01585,-0.031425,0.019425
-0.02895,-0.0403,0.01955
-0.022925,-0.010425,0.01065
-0.016425,0.01565,-0.008375
-0.01365,0.024775,-0.0334
-0.004625,0.00965,0.011075
-0.0106,-0.00865,0.06355
-0.022425,-0.015225,0.065025
-0.0251,0.00925,-0.011775
-0.0211,0.033075,-0.019975
-0.0016,0.016825,0.01155
0.0172,-0.0059,0.050075
0.017925,-0.0225,0.048825
-0.00298,-0.0245,0.00882
-0.0222667,-0.0142667,-0.0115667
-0.0128,0.00616,-0.0187
-0.0155,0.009575,0.026475
0.0064333,-0.0211,0.0524667
0.02342,-0.04042,0.05274
0.01015,-0.033075,0.00835
-0.011625,0.01255,-0.02235
-0.014325,0.0324,0.0371
-0.014,-0.03405,0.100875
0.004175,-0.0348,0.04225
0.00375,-0.0125,-0.038475
-0.013375,-0.0065,-0.036525
-0.024875,0.00355,0.008675
-0.0274,-0.00635,0.04065
0.012875,-0.015375,0.034575
0.00255,0.008675,0.042175
0.009875,-0.002725,0.028325
0.010075,-0.00985,0.027275
0.034675,-0.021575,0.04285
0.0099,-0.036575,0.04345
-0.01262,-0.02554,0.03862
-0.024125,-0.016525,0.018575
-0.02765,-0.007025,0.0389
0.00255,-0.007875,0.00955
0.014525,-0.0174,0.008625
0.00375,-0.0066,0.01305
-0.0005,0.0255,0.00375
-0.020075,0.054275,-0.008925
-0.0018,0.017675,-0.0203
-0.005825,-0.00625,-0.033125
-0.0204,0.00725,-0.0019
-0.0238667,-0.0103667,0.0099
-0.01358,-0.01636,0.01622
-0.009725,-0.013975,0.029175
0.01105,-0.011525,-0.019275
0.022375,0.02875,-0.11145
-0.019875,0.043225,-0.099875
-0.0142,0.005425,0.021125
0.04895,-0.029525,0.0233
0.06285,-0.02935,-0.126575
0.026725,-0.015025,-0.16415
-0.002025,-0.000325,-0.062575
-0.01994,0.03288,-0.00156
-0.0137,0.0254,-0.013275
-0.004625,-0.003525,-0.009875
-0.03215,-0.0004,-0.016
-0.053325,0.02165,0.0095
-0.03515,0.003925,0.01295
-0.0042,0.001175,-0.013475
0.003475,0.003475,-0.05565
0.018125,0.00705,-0.060725
0.04415,0.0104,-0.046975
0.037125,0.022575,-0.01975
0.00565,0.031425,-0.0293
0.004525,0.026875,-0.03155
0.0055,0.005825,-0.014075
-0.00635,-0.031725,0.002075
-0.001175,-0.0221,0.00975
0.007675,0.00945,-0.011425
0.006625,0.019125,-0.034425
0.01285,0.01775,-0.053575
0.02745,0.016275,-0.02255
0.028025,-0.001625,0.036675
0.0358,-0.014325,0.054825
0.00288,0.00692,-0.01012
-0.010725,0.032075,-0.047675
-0.035125,0.01395,-0.0348
-0.05205,-0.02255,-0.01915
-0.012525,-0.006475,-0.0011
0.041425,-0.00035,0.0013
0.03485,-0.0001,0.0174
0.0001,0.0042667,0.0165333
-0.0026,-0.00704,-0.01698
-0.0047,-0.009325,0.01725
-2.5e-05,-0.007975,0.063825
-0.016575,0.003425,0.071875
-0.0198,0.025575,0.054425
-0.02665,-0.010775,0.03725
-0.01245,-0.043425,0.03015
-0.016575,-0.040075,0.0257
-0.018625,-0.006,0.014625
-0.02305,0.026725,0.003525
-0.016725,0.03545,-0.015725
-0.013125,0.0232,-0.00525
0.020525,-0.004725,0.0125
0.02098,-0.02492,0.04516
0.007875,-0.0342,0.068425
-0.001625,-0.017375,0.052075
-0.01795,-0.00115,0.0121
-0.0187,0.009675,0.0176
-0.019325,-0.0097,0.053
0.01955,-0.049975,0.072925
0.0069,-0.0369,0.021425
-0.0328,0.02505,-0.001525
-0.027275,0.03165,0.031675
-0.013875,-0.022275,0.001725
0.009225,-0.016075,-0.032625
-0.002025,-0.0076,-0.019125
-0.0079,0.001325,0.024475
-0.026375,-0.0004,0.072175
-0.018325,0.004,0.0637
-0.020225,0.013775,0.045825
-0.0232,0.0108,0.0325
-0.00915,-0.005675,-0.004675
-0.00955,0.0197,-0.0176
-0.005425,0.0067,0.025
-0.016575,-0.009975,0.021775
-0.01656,-0.01824,0.00314
-0.019575,0.01215,-0.0029
-0.0191,0.002425,0.00525
-0.0114,0.01475,-0.010775
0.0024,0.0041,-0.0098333
0.00544,0.00202,0.00784
-0.0056,0.001925,0.014825
-0.018975,-0.0019,0.017475
-0.02255,0.001775,0.026175
-0.0104,-0.005925,0.019875
-0.023175,-0.014025,0.032675
-0.002775,-0.018025,0.05425
0.0059,-0.02995,0.037625
-0.019525,0.008975,-0.019175
0.000875,0.064125,-0.0146
-0.01315,0.034725,-0.002425
0.0084,-0.0185,-0.06015
0.005575,0.005075,-0.060625
-0.012275,0.02455,-0.02175
-0.0167,0.018125,0.0065
-0.01426,0.01506,-0.04588
0.0242333,0.015,-0.0684333
0.01674,0.0177,-0.00574
0.00305,0.00325,0.021175
-0.00105,-0.0036,-0.026
-0.0096,0.0009,-0.055625
-0.003825,0.005525,-0.03135
-0.01095,-0.0128,0.0252
-0.01465,-0.022725,0.04415
-0.0032,-0.01425,0.0024
-0.001175,-0.009525,-0.0376
0.01245,0.008975,-0.050825
0.0244,0.03395,-0.006275
0.0355,0.02145,0.013625
0.03855,-0.003625,-0.02055
0.025775,-0.013975,-0.0407
0.005725,-0.003025,-0.0463
-0.001875,0.0027,0.003525
0.022475,-0.018625,0.03675
0.0505,-0.045275,0.047775
0.036075,-0.0011,-0.001125
0.003025,0.025625,-0.024125
-0.0135,-0.0077,0.0707
-0.0154,-0.0533,0.042075
0.000325,-0.017425,-0.017625
0.0114,0.00685,-0.0372
-0.0039667,0.0206667,-0.0023333
-0.00192,0.02148,0.02152
0.001925,0.014925,0.0198
0.01335,0.0035,0.04575
-0.0027,-0.0033,0.008775
-0.0183,0.0163,0.0182
-0.003625,-0.00995,0.065
0.0017,-0.031025,0.02885
-0.0209,-0.027625,0.0043
-0.0286,-0.017425,0.013875
-0.026175,-0.011975,0.001125
0.000825,-0.0154,-0.048675
-0.000975,0.0143,-0.067325
0.009,0.029325,-0.03425
-0.002425,0.025575,-0.0236
-0.013,-0.000375,-0.037075
-0.0188,-0.0227,-0.05965
-0.01148,-0.02836,-0.05394
-0.0023,-0.014725,-0.0049
0.023125,-0.019075,-0.00235
0.038825,-0.013675,-0.048025
0.00015,0.03685,-0.074425
-0.043625,0.0225,0.006225
-0.00075,-0.017075,0.14385
0.0226,-0.05815,0.099425
0.0128667,-0.0146333,0.0019333
-0.00298,0.00688,-0.03898
-0.021325,0.002975,0.006725
-0.0212,-0.002875,0.006975
-0.00565,0.015275,-0.009225
0.00825,0.0218,0.01195
0.013275,0.013,0.00375
-0.009675,0.0145,0.0033
-0.004875,-0.00705,0.008125
0.006425,-0.0217,-0.00865
-0.00695,-0.0071,-0.023975
0.002425,0.000975,-0.043075
-0.015,0.0224,-0.024875
-0.02006,0.01324,-0.04514
0.0011,0.0219,-0.0655
-0.015025,0.023775,-0.036225
-0.02325,0.0165,-0.029175
-0.003,-0.0024,-0.00925
-0.0135,-0.0095,-0.01645
-0.0164,-0.0109,-0.0218667
-0.01234,-0.0021,-0.01128
0.00865,-0.00845,0.023075
0.037875,-0.020675,-0.00765
0.002075,0.03,-0.0583
-0.022225,0.04985,-0.02685
-0.0538,-0.0041,0.0429
-0.03465,-0.0582,0.07055
0.00635,-0.030675,0.006575
0.002225,0.01695,-0.056225
-0.023425,0.02255,-0.025025
-0.00965,0.0148,0.002425
-0.001225,0.015625,0.0187
0.005775,-0.0061,0.0499
-0.0079333,-0.0305333,0.0758
-0.01638,-0.02116,0.06726
-0.01662,-0.01462,0.0504
-0.0203333,-0.0060333,0.0325
-0.0187,-0.00012,0.0315
-0.0032333,-0.0075,0.0137667
0.00286,0.01658,0.00608
-0.020775,0.012825,-0.006325
-0.031675,0.009875,-0.02565
-0.014475,0.02025,-0.015075
-0.0101333,0.0172333,0.0009333
-0.00536,0.0092,-0.00568
-0.0162,0.0007,0.005025
-0.007325,-0.019075,-0.00135
-0.00935,-0.0181,0.0217
0.020325,-0.015175,0.0447
0.0549,-0.026425,0.015275
0.055575,0.00845,-0.05665
0.00315,0.0398,-0.06745
0.008,0.00695,-0.0041
-0.002775,-0.0299,0.0249
0.016775,-0.029825,0.0094
0.00775,0.0007,-0.026675
-0.01206,0.0109,-0.00646
-0.021425,0.008375,0.00275
0.008,0.0145,-0.011925
0.0119,0.02195,-0.004125
0.025575,0.0145,0.01215
0.023,-0.0087,0.0064
-0.005625,-0.0238,0.014775
-0.0149667,-0.0133333,0.0255333
-0.02156,-0.02006,0.03446
-0.00155,-0.01025,0.013775
-0.004625,0.004025,-0.008975
-0.017525,0.01105,-0.010975
-0.0371667,0.0212,-0.0079
-0.02198,0.00418,0.00594
-0.015375,-0.004475,0.01265
0.003325,-0.005075,0.005
0.005625,0.0073,0.00145
-0.005275,0.0048,-0.001025
-0.0031,-0.00165,-0.01265
-0.027225,0.003125,-0.026975
-0.0221,-0.007025,0.001825
-0.00265,0.00785,0.025725
0.029975,-0.0203,0.038225
0.04156,-0.00142,-0.01142
-0.0075,0.0474,-0.022275
-0.00125,-0.006075,0.030725
0.00535,-0.043975,0.0029
0.013,-0.0332667,-0.0173
0.02016,0.00986,-0.03228
0.006375,0.01905,-0.012375
0.008175,0.00615,-0.009925
0.0164,0.02105,-0.0185
0.0158333,0.0203667,0.0205333
0.01366,0.00606,0.07652
0.00275,-0.0378,0.05915
0.014275,-0.049725,0.0237
-0.006875,-0.03205,0.06225
-0.009275,-0.0181,0.085525
-0.02805,-0.021075,0.078825
-0.035125,-0.0276,0.0596
-0.04045,-0.010075,0.0369
-0.025375,0.0139,0.003
-0.01385,0.00165,-0.00465
0.03748,-0.01914,0.02962
0.0616,-0.0322,0.0692
0.02875,-0.014925,0.08735
-0.0064,-0.00595,0.0895
0.006025,-0.0385,0.1081
0.06735,-0.033975,0.124025
0.018,0.020775,0.1046
-0.0376,0.059125,0.03045
-0.0404,-0.009725,-0.0423
-0.03575,-0.082075,-0.002725
-0.078875,-0.08185,0.012475
-0.0979,0.05385,-0.0437
-0.05715,0.1203,-0.061075
-0.00575,0.059475,-0.038975
0.033,-0.0284,-0.048075
0.03675,0.0394,-0.04135
0.05675,-0.0272,-0.0152
0.097875,-0.04455,0.002575
0.073325,-0.037425,-0.05145
0.0591,-0.0395333,-0.0639333
-0.0808167,0.0437667,-0.0212333
-0.1491,0.0796667,-0.0068667
-0.05916,0.03076,-0.06506
0.025375,0.000275,-0.093475
-0.0115333,0.0203333,-0.0891333
-0.0334,0.01376,-0.0691
0.022575,-0.02505,-0.023625
0.03845,-0.02995,-0.039225
-0.016325,0.032,-0.05135
-0.0474,0.0855333,-0.0235667
-0.01824,0.01616,-0.04182
0.0306,-0.044275,-0.069625
0.038375,-0.067475,-0.066125
0.0195,0.03855,-0.06425
0.032075,0.0464,-0.09065
0.031,0.04805,-0.072975
0.09265,-0.067925,-0.002575
0.067475,-0.077225,-0.02225
-0.0359,0.005525,-0.01115
-0.036925,0.03615,0.009775
0.02805,0.033725,0.036775
0.03055,0.04895,0.01345
-0.046275,0.009875,0.00045
-0.1027,-0.066225,0.123625
-0.102575,-0.082625,0.129775
-0.08944,-0.00854,-0.00764
-0.042075,0.016925,-0.09425
0.03135,0.05375,-0.02775
-0.034925,0.037975,0.021075
-0.0166667,0.0470667,-0.0436667
-0.01698,0.00674,-0.07872
0.079425,-0.07195,-0.047575
0.1033,-0.0771,-0.013825
0.085125,-0.053675,0.041025
0.0303333,-0.0013667,0.0693667
0.00436,0.02538,0.10508
0.01435,-0.02205,0.09315
-0.060375,-0.02515,0.066175
-0.14515,0.0138,-0.027425
-0.1802,0.007,-0.054475
-0.093725,0.004475,-0.015725
-0.008875,0.02335,0.03885
0.02755,0.0402,0.04995
0.02754,0.01026,-0.02528
0.0602,-0.0260667,-0.0714667
0.07298,-0.0204,-0.03238
0.04875,0.032225,0.0074
-0.012425,0.0372,-0.0238
0.027825,-0.0522,-0.052275
0.0441,-0.054,0.0035333
0.05606,-0.0348,0.05204
0.045975,-0.0142,0.011825
0.000175,0.023825,-0.056625
-0.0449,0.013325,-0.007025
-0.055225,0.0146,0.043075
-0.013975,0.03705,0.000275
0.042675,0.063875,-0.07275
0.03655,0.062425,-0.086425
-0.0088,0.00535,-0.064875
-0.0183,-0.02455,0.000775
-0.004625,-0.01445,0.031775
-0.000825,0.013875,0.021925
-0.0092,0.0093,-0.00025
-0.028525,-0.012325,0.005375
-0.0574,-0.06105,0.030925
-0.04868,-0.01576,0.08152
0.004375,0.009425,0.039
-0.030875,0.0392,0.040775
-0.09415,0.000625,0.01765
-0.1485333,0.0294333,-0.0044333
-0.14134,0.03634,-0.0581
-0.015925,-0.00065,-0.05755
0.076025,-0.03515,0.006825
0.13655,-0.025025,0.093725
0.1355667,0.0040333,0.1197667
0.09514,-0.01118,0.0647
0.06765,-0.047625,0.007275
0.070775,-0.049875,-0.01085
0.060825,-0.0264,-0.022275
0.030125,-0.00625,-0.019425
-0.001225,0.017175,-0.013225
-0.038875,0.051825,-0.002775
-0.0651,0.0341,0.04395
-0.0578,-0.005625,-0.015425
-0.039775,0.00045,-0.076225
-0.030825,-0.01095,0.020475
-0.0714,0.01282,0.01362
-0.0780667,0.0241333,-0.0985667
-0.01768,0.03758,-0.12268
0.03415,-0.03525,-0.05515
0.0629,-0.0733,0.02755
0.0517,0.00905,0.065025
0.007225,0.089375,0.03905
0.072175,0.004025,0.00745
0.0893667,-0.0436,0.0381
0.01058,-0.0388,0.04056
-0.073375,-0.00495,0.030375
-0.0498,0.029525,0.04835
0.00745,0.03365,0.054575
0.034725,0.031175,0.027925
0.038575,0.009325,0.01095
-0.0343,0.063525,0.047825
0.03745,-0.02565,-0.04045
0.026525,-0.041625,-0.017275
-0.01295,-0.026025,-0.014725
-0.00135,-0.029475,-0.033825
-0.03575,0.017275,-0.04525
-0.064625,0.0888,-0.072525
0.0316,-0.01115,-0.131325
0.027025,0.020825,-0.087
-0.00678,0.02888,-0.05014
-0.0971,0.052,0.038275
-0.059775,0.053025,-0.008225
0.042325,-0.079875,-0.015725
0.0459,-0.048725,-0.0067
-0.026775,0.038475,-0.0238
-0.044125,0.108325,-0.003025
0.0413,-0.014825,0.037625
0.01285,-0.049,-0.00235
-0.003575,-0.030375,0.011575
0.00095,-0.0,0.030375
0.021175,-0.0142,0.06805
0.0182,0.0031,0.04685
-0.000475,0.0578,-0.01635
0.0807,0.0218,-0.067675
0.05175,0.005725,0.02895
0.006625,0.0004,-0.0265
-0.04874,0.01572,-0.07132
-0.0625,0.0631,-0.03755
0.023175,-0.01645,-0.107875
0.137425,-0.080975,-0.155525
0.2211,-0.13545,-0.144125
0.1664,-0.09885,0.00585
0.02525,0.01855,0.09055
-0.087125,0.051825,0.103825
-0.104325,0.017725,0.1212
-0.12425,-0.006425,0.073275
-0.19495,0.0657,0.0909
-0.260875,0.09835,0.127825
-0.186325,0.043175,0.128625
-0.052425,-0.104825,0.07035
0.04105,-0.194625,0.043775
-0.03815,-0.084675,0.10295
-0.1082,0.033175,0.13465
-0.069525,0.0711,0.120325
0.01255,0.033025,0.034375
0.0419,0.023075,-0.0244
0.06715,-0.010325,0.077225
0.0933,-0.050525,0.096075
0.08668,-0.02936,-0.06178
0.0773,-0.00565,-0.11825
0.068025,-0.0168,-0.057425
0.0398,-0.0241,0.010275
-0.011475,-0.004325,0.0536
-0.01665,0.00465,0.10735
-0.05445,-0.02795,0.1453
-0.051375,-0.0299,0.162325
-0.0538,-0.02435,0.1435
-0.041525,-0.0353,0.129375
-0.069875,-0.038275,0.083975
-0.0644,-0.0155,0.03395
-0.0189,0.00815,-0.015475
0.026075,0.030225,-0.05045
