accx,accy,accz
0.0977,-0.2571,-0.1240333
0.18805,-0.25725,-0.1226
0.05515,-0.28115,0.12235
-0.1079,-0.40345,0.0661
0.0805,-0.3803,0.0185
0.18855,-0.0499,-0.03845
-0.0412,-0.14405,-0.02675
-0.1447,-0.2655,-0.30345
-0.05635,-0.10955,-0.324
-0.144,-0.1386,-0.158
-0.5151,-0.2032,-0.51505
-0.60335,0.09295,-0.6113
-0.3633,0.5432,-0.3893
0.039,0.54185,-0.40625
0.46105,0.44415,0.1798
0.65875,0.10855,0.3195
0.3247,-0.4049,-0.0211
-0.5453,-0.57695,-0.4746
-1.13225,-0.47635,-0.6246
-0.96825,-0.49045,-0.3522
-0.6986,-0.5283,-0.0579
-0.4604667,-0.1799667,-0.1091333
-0.47905,0.57035,0.0131
-0.6203,0.75205,0.53625
-0.706,0.11055,1.37735
-0.5036,-0.5345,0.86425
0.121,-0.5156,0.21175
0.68965,-0.3487,0.46705
0.45715,-0.4005,0.3952
-0.16785,-0.3495,0.1303
-0.28455,-0.22195,-0.24655
0.2979,-0.232,-0.40805
0.6231,-0.4938,-0.00305
0.2508,-0.85035,0.15615
-0.37355,-0.5701,-0.341
-0.57995,-0.0013,-0.322
-0.46835,0.05285,0.0448
-0.4221,-0.2338,0.6802
-0.3574667,-0.5651333,0.7196333
-0.1711,-0.5936,0.2292
0.0269333,-0.4486667,0.0327
-0.04655,-0.3964,0.076
-0.16225,-0.39215,0.22705
-0.2013,-0.4508,0.4959
-0.3235667,-0.6518333,0.6294333
-0.375,-0.7076,0.4682
-0.1124667,-0.5276667,0.1411333
0.13625,-0.2304,-0.0216
0.10365,-0.20125,0.2985
-0.1008,-0.35635,0.45305
-0.2543,-0.5828,0.6082
-0.24815,-0.79145,0.513
0.1171667,-0.7771667,0.4521333
0.1139,-0.485,0.752
-0.28975,-0.1438,0.691
-0.4443,0.0991,0.7298
-0.29695,0.2795,0.82755
0.1933333,0.7384667,0.3711333
0.5498,1.7277,0.1463
0.79575,2.62005,0.5524
1.1081,2.8213,1.3789
1.22015,2.62935,2.3575
0.7283333,2.0708,2.3233
0.13365,2.162,0.9365
0.21025,2.14655,0.40715
0.3103,1.9099,-0.1624
-0.0374,1.2273333,-0.9316667
-0.69305,0.25975,-1.46
-1.08995,-0.5225,-1.7458
-1.21785,-0.86245,-2.0533
-0.9519,-0.7687,-2.1392
-0.0631333,-0.2571667,-1.8317
1.12995,0.14785,-1.15245
1.48225,0.00545,-0.6898
0.99015,-0.2741,-0.68145
0.3701,-0.5529,-0.5748
0.00075,-0.98415,-0.2774
-0.03355,-1.4072,-0.43375
0.1652,-1.8406,-0.0811
0.38995,-2.07935,-0.07225
0.32745,-1.8772,-0.9197
0.4846,-1.79425,-0.99185
0.14315,-1.1991,-1.0709
0.1518,-0.6212,-0.1624
0.4647,-0.66565,0.16685
0.5634,-1.0941,0.0334
0.453375,-1.38925,-0.139675
0.43675,-0.9698,-0.4829
0.2495667,-0.6732667,-0.4362333
-0.2053,-0.5751,-0.1862
-0.3403,-0.46474,-0.4477
-0.24925,0.16955,0.00735
-0.46045,0.2705,0.8881
-0.5649,0.418,0.901
0.1776667,0.2352333,1.1334667
0.495,0.4708,1.07205
0.1872,0.83985,0.9178
-0.1235,1.7961,0.6578
0.0431,2.5459,0.1759
0.68148,3.31776,-0.2808
-0.3430333,4.4735,0.2479
-1.1246,3.35465,-1.2759
-0.6426,0.6605,-1.0261333
0.1837667,-1.5209667,-2.2488667
0.2394,-1.3502,-2.6211
-0.34955,-0.85995,-2.02505
-0.5955,-0.9469,-0.8025
-0.06825,-1.3975,-1.02375
0.06835,-1.59765,-0.7899
-0.13835,-1.7468,-0.39155
-0.2499,-1.6524,-0.51305
-0.21725,-1.1468,-0.7272
-0.2796,-0.88635,-0.463
-0.3022,-0.9577,-0.3717
-0.3511,-1.0999,-0.3847
-0.249825,-1.6351,-0.26115
0.3016,-1.47495,-0.3481
0.0176,-1.0271,-0.1907
-0.3655,-0.801,0.1199
-0.5207,-0.7717,0.1392667
-0.2106,-0.92115,0.1526
0.2409,-1.132,0.2426
0.1385,-1.27865,0.4928
-0.35705,-1.1475,0.5747
-0.68245,-0.4123,0.16415
-0.63335,0.4098,0.4295
-0.1483,0.74855,0.79955
0.49525,1.04945,1.316
0.76005,1.2759,1.85255
0.4267,1.4372,2.2244
-0.2141333,1.6756,2.3325
-0.4181,2.35715,1.44975
-0.4626,3.15075,0.4869
-0.33385,4.66595,-0.793
0.51655,3.29975,-0.263625
0.69535,0.36985,-1.7574
0.26555,-0.2345,-3.18345
0.477,0.01745,-2.67265
0.083275,-0.270825,-0.640275
-0.2121,-1.4487,-0.2647
-0.2527667,-1.5933,-1.4266667
-0.2723,-1.4255,-1.6732
0.505,-1.53764,-1.08102
1.35325,-2.0798,-1.1514
1.10305,-2.21455,-0.47395
0.1744,-2.49265,-0.504
-0.61305,-2.51565,-0.8271
-0.0581,-1.5095,-0.6569
0.3542333,-1.0451333,0.2480667
-0.131,-1.0524,0.5128
-0.2538667,-0.9681333,-0.3272
0.4419,-0.5569,-0.5516
0.7155,-0.4529333,0.4179333
0.31025,-0.9285,0.5138
0.0235,-1.019,-0.0019
0.0691,-0.96565,0.00405
-0.05085,-0.90555,0.6499
-0.38505,-0.8343,1.2603
-0.3165,-0.4043,1.1243
0.1017,0.1621,0.9748
0.2866,0.4728,1.1498
-0.0107667,1.1042333,1.6161667
-0.28955,2.12775,1.39625
0.3754,3.2201,0.53785
1.6453,3.8326,-0.5524
2.4253667,5.0788333,-1.0817
0.6248,5.9337,0.45255
-2.59935,3.8493,0.42615
-2.94555,1.21685,0.3712
-1.0319,-0.6713,-1.8991
0.82565,-1.182975,-2.143475
0.1634,-0.4959,-1.13295
-0.74,-0.0328,-1.006
-0.8643,-0.18445,-0.7853
-0.2985,-0.74315,-0.29035
0.2932,-1.52105,-0.0039
0.3088,-2.0831,0.02995
-0.2701667,-2.2741,-0.8870333
-0.4795,-1.9908,-0.8339
-0.3452333,-1.7338333,-0.1388667
-0.003,-1.9038,0.1315
0.2368667,-2.5293333,-0.1668333
0.11205,-2.8596,-1.042
-0.1424,-2.7069,-1.35
-0.01196,-2.166,-0.82654
0.13535,-1.57065,-0.59415
-0.3497,-0.94975,-0.04075
-0.749,-0.594,0.5597
-0.9673,-0.0030667,0.6123333
-0.6722,1.1154,0.73655
-0.1598,1.8917,0.9693
0.6516667,2.6199333,1.5300333
1.2214,2.6505,2.846
1.124225,1.9622,2.7281
0.2474667,2.2356333,1.5063667
0.0963,3.60795,-0.52645
-0.04875,5.07445,-3.9351
-0.2103,4.6555,-3.7321
0.8769,2.19645,-0.1822
0.3901667,-0.6429667,-0.2941
-1.09965,-1.39375,-2.265
-0.77485,-0.81055,-1.69245
0.2541,-0.33875,-1.0125
0.93945,-0.47435,-0.97185
0.53965,-0.7038,-1.51445
-0.027,-1.0296,-1.377
-0.1961,-1.3943,-1.1038
-0.20875,-1.91505,-1.1473
0.0185,-3.0379667,-1.5221333
0.35705,-3.7549,-0.9309
0.4473,-3.40185,-0.6818
0.6815,-2.4813,-0.47735
0.5196,-1.29325,-0.253725
0.33895,-0.79075,-0.1736
0.43395,-0.86085,0.22025
0.29645,-0.98255,0.25395
-0.0148,-0.980625,0.844375
0.09085,-0.7513,0.03595
0.2867,-0.2868,-0.07095
0.4826,-0.1889,0.31625
0.34615,-0.13675,0.78925
0.171625,0.75065,0.5286
0.58,2.1808,0.57625
0.4503,2.93005,1.15705
0.0236,3.4213,0.7967
0.1623333,4.6326333,-0.2936333
0.67335,5.51535,-0.01645
-0.3721667,3.1850667,0.8830667
-1.54545,0.5098,-0.13315
-0.746875,-0.92545,-2.537075
0.0298,-0.8099,-1.82945
-0.1286,-0.19035,-0.47985
-0.7884,-0.09255,0.1219
-1.162525,-0.5809,-0.1295
0.137,-0.82165,0.34505
0.2912,-1.41445,0.21585
0.13655,-2.24885,-0.3711
0.2151,-2.7353,-1.0199
0.4034333,-3.1017,-1.2708
0.5493,-3.351,-0.9151
0.47245,-3.4372,-0.999
0.0587,-3.38125,-0.7073
-0.0812667,-3.0947,-1.0183333
0.05035,-2.055575,-0.250025
0.6814,-0.4504,0.7969
0.9693,0.2904,1.1116
0.49255,0.9139,1.37595
-0.1541,1.0857,1.7992
-0.72065,0.85965,1.60085
-0.4764,0.9817,0.7884667
0.1579,1.3613,1.2329
0.10315,1.68485,1.72545
0.3978,2.7132,1.74
0.61085,3.8491,0.52035
0.2638,4.93715,-1.84385
-1.72095,4.90855,-3.2623
-1.6129,2.744,-0.7861
-0.0818667,0.5101,-1.4519333
-0.14295,-0.9651,-1.43065
-0.59585,-1.27295,-1.8839
-0.33145,-0.65885,-1.7139
0.5555,-0.1975,-1.194
0.46684,-0.50864,-0.56536
-0.23735,-1.25865,-0.9846
0.3952,-1.521,-0.98145
1.33965,-1.87315,-0.931
1.5939,-2.1346,-1.0025
1.1324667,-2.4817667,-0.6132333
0.4158,-2.77495,-0.5109
0.49365,-2.1784,-0.629
0.46685,-1.478,-0.404
-0.13455,-1.2124,-0.4449
-0.5351,-1.28965,-0.5953
-0.4113,-1.12605,0.32895
0.0051,-1.1137,0.7887
0.00645,-0.60775,-0.1547
0.15396,-0.18654,0.38522
0.73915,-0.81955,0.8325
0.83345,0.4243,0.1508
0.8055,1.9469,0.035
0.873575,3.446,1.2972
0.6669,4.1359,0.4130667
0.01235,4.3985,-0.11075
-0.8273,3.5936,-0.0653
-2.09166,0.68986,-0.76876
-0.73665,-1.2464,-2.0003
-0.37735,-1.3294,-1.28955
0.0123,-0.8895,-0.8299
-0.59076,0.11702,-0.65088
-0.59645,0.24555,-0.3344
0.138,-0.3889,0.23645
0.4296,-1.6369,0.10995
0.10305,-2.66885,-0.9061
-0.3507,-2.8732,-0.8669
-0.44025,-2.68395,-0.0903
-0.4727,-2.5987,-0.1626
-0.2344333,-2.5759667,-0.6981667
-0.1021,-2.1649,-1.02085
-0.2162,-1.9142,-0.61145
-0.16175,-2.0955,-0.19295
-0.28195,-2.2935,-0.33105
-0.07,-2.2087,-0.5585
0.7028,-1.6225,-0.1978
1.1914,-0.7176,0.61995
0.678,0.04165,1.1868
-0.4116,0.87495,0.54225
-0.78855,1.55165,1.1397
-0.0636,1.52515,2.0826
0.3735,0.23255,2.5449
-0.33785,-0.31605,2.74565
-0.67485,0.6922,0.36255
0.1131,2.34775,-0.41695
1.1624,3.5039,-0.0658
0.8408333,3.5355,0.1128
-0.8131333,2.9827333,-0.3406667
-0.5517,3.7762,-2.211
-0.01805,3.4939,-2.89495
0.2626333,1.0550667,-1.1342333
-0.4668,-1.03425,-1.7551
-0.3986,-2.03385,-1.7084
0.0246,-2.2232,-1.4294
0.4245667,-1.2880667,-1.1069667
0.73445,0.0403,-0.6795
0.35145,0.3583,-0.7719
0.0171,0.24795,-0.58715
0.1004,-0.30365,-0.3655
0.3026,-1.3369,-0.0882
0.31055,-2.34015,-0.3092
0.16695,-2.5778,-0.89385
0.1962,-2.1383,-0.621
0.30025,-1.8499,0.1976
0.2561,-2.06455,-0.18295
0.2601,-2.2394,-0.2784
0.3617,-2.28715,-0.4812
0.3579,-2.12755,-0.288
0.15255,-1.7017,0.1781
0.19775,-1.5864,0.56805
-0.1321,-0.708275,0.293675
0.2328,-0.1845,0.7969
0.5341,-0.0458,1.17695
0.5748,0.0274,1.2461
0.5851,0.0612,1.4337
0.15285,0.285,1.727525
-0.5581,1.1419,1.5539
-0.6667,1.9578,1.3355
-0.2575667,3.0321333,1.5822
0.5449,3.58135,0.69345
0.31245,4.581,-0.61455
0.2562,5.2569,-1.721
-0.9013333,3.9660667,-1.2113
-1.1756,0.7661,-0.34305
-0.18995,-0.8158,-1.22355
0.548775,-1.660375,-2.48235
-0.46805,-1.2358,-1.31255
-1.65245,-0.90605,-0.3946
-2.3895,-0.9311,-0.6026
-1.7557,-1.1220667,-1.3075
0.2959,-1.3655,-1.4062
1.14975,-1.4554,-0.951
0.6019,-1.4943,-0.72875
-0.121,-1.536,-0.7085
-0.4115,-1.6209333,-0.9383
0.0612,-1.4248,-1.1513
0.4163,-1.28385,-0.6813
0.01715,-1.33865,-0.5022
-0.5324,-1.466,-0.5344
-0.9788,-1.5801,-0.4131667
-0.6894667,-1.2846,-0.2632
-0.2647,-0.922,0.0206
-0.17335,-0.87035,0.28885
-0.2730333,-1.0161,0.4020667
-0.01415,-1.174425,0.08345
-0.0436,-1.1283,0.4054
-0.5248,-0.9463333,0.4809667
-0.9114,-0.5623,0.791
-0.8475,-0.4126,0.6384
-0.380125,-0.251,0.33105
0.0176,-0.3636,0.7676
-0.3201,0.12165,0.6333
-0.7436,0.7122,0.5013
-0.8800333,1.5838,0.0166667
-0.15745,3.30345,-0.9954
0.5067,4.15205,-1.2734
0.43125,1.91155,-1.4262
-0.3979,-0.5994,-1.2406
-0.296,-2.3049,-1.22875
0.2419333,-2.7527667,-1.8799
0.1003,-0.67785,-2.5306
-0.4489,1.38475,-1.5366
-0.6358,2.1045,-0.4702
-0.56606,0.76856,0.10306
-0.3119,-1.6075,0.0069
0.0154667,-2.3322333,-0.3557667
0.518,-2.1335,-0.5232
0.9021,-1.7895,-0.3482
0.93765,-0.302275,-0.5087
0.22505,0.3731,-0.7369
-0.4104,0.30075,-0.32225
-0.4772,-0.45455,-0.1942
-0.2825,-1.0247,0.0398
-0.3214,-1.0173,-0.0787333
-0.5714,-0.832,-0.114
-0.81085,-0.9965,0.57205
-1.21325,-0.8919,0.7668
-1.029,-1.1781,-0.2141
-0.4564,-1.51555,-0.6028
-0.2823,-1.5596,-0.17415
-0.3276,-1.10555,0.21415
-0.2793,-0.3583,0.6756
-0.4582,-0.25045,1.3851
-0.76135,-0.81835,1.76115
-0.3339,-1.3496,0.84065
0.6753333,-0.8142667,-0.4633333
1.3112,0.1559,-0.2646
0.84455,0.67015,1.15585
-0.8783333,1.1920333,2.0728333
-1.5743,1.6125,1.72425
-1.87145,2.24225,1.12705
-0.56815,3.71515,-2.9313
0.5926,3.9773,-4.318
1.67635,6.11595,1.07185
-0.9170667,1.6370333,-0.1111
-3.1779,-1.4113,-0.8732
-2.5838333,-2.1287667,-2.9386667
-0.5791,-1.0365,-3.65
0.3362,0.30325,-2.2242
0.1836,1.0788333,-1.0453
-0.65,0.1787,-0.89295
-0.50765,-1.55005,-0.57395
-0.0727,-2.3838,-0.3599
0.4348333,-2.0314333,-0.2322
0.08145,-0.89005,0.11415
-0.70015,-0.14335,-0.05975
-0.6074,0.35455,-0.52915
0.1034,0.2134667,-0.1347333
0.28985,-0.83055,0.5976
-0.2838667,-1.7698333,0.3615
-0.3887,-1.347,-0.2718
-0.425925,-0.441875,-0.435875
-0.2781,-0.0886,0.2739
-0.1149667,-0.717,0.8738
-0.34075,-1.6548,1.31055
-0.7126,-1.819,1.1224
-0.63375,-1.52885,0.5153
-0.22185,-1.01955,0.50335
0.0014,-1.1651,0.8682
-0.07235,-1.9341,1.0067
-0.4112,-2.07205,0.48415
-0.8266,-1.18365,0.54555
-0.89785,-0.5033,1.1499
-1.20735,-0.4728,0.4698
-1.3053,-0.5353,-0.8454
-1.13155,-0.04045,0.1558
-0.37755,0.53335,2.54975
0.76405,2.466,-0.13945
-0.241,5.0305,-2.98195
-1.41455,4.47255,-2.8612
-2.32435,4.2237,-1.4518
-0.94785,-0.15675,-0.3499
1.22125,-1.93225,-0.0447
1.92745,-0.95565,-2.13795
0.9241,0.3928,-3.2993
-1.459175,2.25085,-2.324025
-1.54715,1.7846,-0.76635
-0.586,0.47185,-0.1724
-0.221,-0.5067,-0.7192
-0.1435,-1.0865,-1.0186
0.219875,-1.5937,-0.775275
0.1017,-0.8114,-0.83915
-0.6363,-0.3794,-1.1459
-0.9667,-0.375,-1.0803
-0.7254667,-0.6212333,-0.7135667
-0.3494,-0.8715,-0.387
0.2477333,-1.2417,-0.4785
0.4073,-1.3694,-0.8012
0.13855,-1.34935,-0.80215
-0.2436,-1.01925,-0.1902
-0.3875,-0.7755,0.3415
-0.3607333,-0.9352,0.6739333
-0.30295,-1.4972,0.5588
-0.22725,-2.0196,0.58635
-0.4519,-2.1521,1.0068
-0.6968667,-1.886,1.2058667
-0.4384,-1.1995,0.9866
-0.17065,-0.50885,1.12055
-0.7029,-0.3599,1.46225
-1.6196,-0.7316,1.8435
-1.7343,-1.2721333,0.5523667
-0.6048,-0.8958,0.0002
0.4801333,0.5193667,1.1328
-1.0726,1.58075,2.65875
-2.1638,4.8682,0.2604
0.2931,7.7987333,-4.068
3.00655,4.4076,-2.9905
-0.0951,0.5557,1.88765
-2.9456,-1.54305,0.60785
-2.87195,-0.43105,-3.80865
0.902425,2.652225,-4.34295
0.1162,1.963,-2.0148
-0.83985,0.5732,-1.1103
-0.59135,-0.30785,-1.28435
-0.36565,-0.8431,-1.73245
-0.70015,-1.43695,-1.3206
-1.22925,-1.68385,-0.93035
-1.20285,-1.2749,-1.5007
-0.63695,-0.73425,-1.497
-0.08115,-0.5668,-1.0876
-0.1538,-0.69505,-0.7364
-0.53365,-0.4557,-0.53335
-0.5437,-0.03845,-0.4367
-0.2145,0.066,-0.53065
0.23325,-0.15385,0.1084
0.2812667,-0.6430667,0.1062667
-0.17445,-0.83115,0.1687
-0.6311,-0.72585,0.10435
-0.8764,-0.6916,0.0194
-0.9413333,-0.6876,0.2042667
-0.6939,-0.6517,0.3659
-0.4732,-0.61475,0.2592
-0.4791,-0.58625,0.10055
-0.42745,-0.5694,0.249
-0.29285,-0.77505,0.6228
-0.1652,-0.8565,0.9892
-0.04885,-0.608,0.8336
-0.0328,-0.4663,0.76855
-0.4478,-0.7017,0.87045
-0.8648,-0.6552,0.9638
-1.1319667,-0.0455333,0.9246
-0.7438,0.93875,0.8084
-0.23,2.17815,0.3359
0.57375,4.43765,-0.55975
0.5335,7.12625,-0.93375
-0.25545,7.0114,-0.6181
-1.12855,4.11615,0.8335
-0.94225,1.5253,-0.74705
0.00145,0.4256,-2.16625
0.698,0.12005,-2.00155
0.7021,0.1993,-1.9238
0.6445667,0.1482333,-1.8489
0.7322,0.27965,-1.30995
0.8024,0.4093,-1.0946
0.7751,0.0575,-0.5761
0.59465,-0.67445,-0.3285
0.29,-1.16495,-0.64185
0.0556,-1.5806,-0.77825
-0.17055,-1.7289,-0.75755
-0.2646,-1.77585,-0.5289
-0.252,-1.82345,-0.3413
-0.03635,-2.0824,-0.5223
0.2962,-2.18635,-0.5801
0.3986,-2.17925,-0.56875
0.1698,-2.18545,-0.48245
-0.1601,-2.0029,-0.4346
-0.1514,-1.88775,-0.4627
-0.12785,-1.5866,-0.2891
-0.1653,-1.18905,-0.05135
0.1268,-1.07595,0.193
0.5052,-0.87985,0.5416
0.6032,-0.8167,0.7758
0.416,-1.0555,0.8508
0.25825,-1.2419,0.4026
0.2001,-1.2088,0.2805
-0.0993667,-1.0694667,0.4765333
-0.4964,-0.9703333,0.9976667
-0.7626,-1.1046,1.43555
-0.8752,-0.7992,1.4177
-0.8847,-0.276,1.1198
0.029675,0.935475,1.1468
0.4106,1.9385,2.58175
-0.60305,2.9888,1.7916
-1.09,4.1575,0.405
-1.0226,5.0882,-0.5753
-0.39655,6.5245,-2.32565
-1.1192,4.8848,-1.2851
-1.424,2.61075,-1.44635
-0.2841,0.94275,-1.0973
0.6325,-0.4029,-1.11095
0.8055,-0.93315,-1.51725
0.05295,-0.9652,-1.06935
-0.60755,-0.46515,-0.6755
-0.6019,0.1109,-0.93085
-0.0079,-0.00605,-0.72165
-0.05005,-0.8617,-0.08335
-0.75475,-2.0203,0.64655
-1.321,-2.968,-0.18845
-0.87145,-3.6129,-0.6894
-0.2277,-3.8407,-0.9577
-0.07505,-3.8225,-0.89115
-0.6528667,-3.6525667,-0.7632333
-0.36605,-3.3221,-0.2595
0.66605,-2.8796,-0.5028
1.0389,-2.4857,-0.6884
0.853,-1.7155667,-0.5354333
-0.0124,-0.89285,0.13185
-0.34845,-0.3964,0.97855
-0.36695,-0.17955,1.39615
-0.6191,-0.232,1.1543
-1.4491,-0.3482,0.6994
-2.403,0.08465,0.6405
-2.0072,0.68375,1.20415
-0.31425,1.48265,1.19025
1.40045,2.82545,0.5939
1.764,5.76875,0.44575
1.67865,6.4153,-1.1798
1.3542,6.3489,-1.5771
2.08825,1.8912,-0.1771
2.7484,-0.6929,0.4687
1.4174,-1.54925,-1.44255
-0.4498333,-0.0669333,-2.3578667
-0.5502,1.754,-1.634
0.5511,1.6006667,-0.6045333
1.609,0.5149,0.2976
1.4327667,-0.4995,0.1077333
0.5424,-1.3714,-0.4322
-0.3181667,-2.2425667,-0.8037667
-0.2958,-3.02085,-1.01795
0.0911,-3.0638,-1.0805
0.6755667,-2.9006333,-0.8906
0.94885,-2.75505,-0.56885
0.77605,-2.7719,-0.7035
0.3959,-2.7817,-0.78695
-0.0252,-2.7559,-0.8163
-0.2423333,-2.3425333,-0.6187333
0.1462,-1.79265,-0.10425
0.4386,-1.63365,0.51485
0.3958,-1.2452,0.31705
0.4061,-0.7934,-0.074
1.0231667,-0.6252333,0.0476333
1.0018,-0.5172,0.74755
0.0724,-0.67715,0.91115
-0.46955,-0.33885,0.878
-0.27255,0.2303,0.8524
0.2465,0.74225,1.1443
0.53385,1.1512,1.39535
0.391,1.41885,1.5415
0.26445,1.86525,0.78965
0.39365,3.50745,-0.94895
0.888,5.4467,-1.7272
0.7245667,6.6559667,-1.1561333
-1.1946,3.862,-0.69085
-1.75745,1.1128,-1.3338
-0.7629,-0.84275,-2.0931
0.683,-1.5502,-2.43845
1.58155,-0.6066,-2.10955
0.7178,0.0363,-1.29335
-0.68205,-0.4226,-0.7309
-1.40925,-1.16625,-0.5367
-1.22635,-1.2571,-0.9868
-0.85675,-1.0967,-0.9563
-0.84115,-1.10985,-0.4912
-0.8382,-1.3943,-0.75145
-0.52125,-1.6041,-0.9056
-0.07215,-1.5882,-0.81545
0.14665,-1.531,-0.5329
-0.009,-1.4614,-0.80895
-0.05315,-1.4983,-0.8893
0.2876,-1.5333,-0.2073
0.83865,-1.8938,0.2032
0.5236,-1.9574333,-0.1865
-0.4804,-1.4449,-0.5974
-0.6677,-1.0041,-0.34585
-0.3372,-0.6245,0.2463
0.17085,-0.44065,0.6473
0.6668333,0.7825333,0.9929333
0.2678,2.4437,1.8044
-0.8736333,3.3849333,2.78
-1.3331,3.0104,3.1118
-0.5825333,2.0306,1.9510333
0.6476,2.08515,0.5641
0.97065,3.26785,0.82325
0.507,3.80005,-0.0973
0.0731,2.4687,-2.0405
-0.1109,0.1454,-2.3216
0.72975,-1.6258,-2.17085
1.2158,-1.76675,-2.311
0.90935,-1.1348,-1.6198
-0.2614,-0.7978,-0.86215
-1.0959,-1.1029,-0.827
-1.26945,-1.58205,-0.83705
-0.6776,-1.6831,-0.0519
0.03445,-1.65505,0.0045
0.69265,-1.70995,-0.81195
1.23965,-2.10685,-1.0798
1.57205,-2.4044,-0.6815
1.5612,-2.27195,-0.52995
1.1541,-1.7908,-0.2619
0.7716,-1.25315,-0.31775
0.3635,-1.0058,-0.3269
-0.30045,-0.89,-0.36065
-1.5900667,-0.8758667,0.0244333
-1.6186,-1.1418,0.6182
-1.08415,-1.1827,0.47905
-0.5876,-0.98955,-0.0318
-0.3483,-0.8927,-0.45705
-0.0574,-0.7765,-0.35715
0.39895,-0.75615,0.0751
0.67405,-0.51075,0.18485
0.66535,-0.24375,0.74425
0.384,-0.18915,1.12465
-0.0752,-0.0298,1.09305
-0.40355,0.26405,0.7039
-0.1847,0.4631,0.6181
-0.0194,1.09445,0.7345
0.49405,2.60435,0.81935
1.0037,4.02755,0.4174
1.07705,4.22715,0.34965
0.2244,3.9358,1.0794
-1.0334,3.4987,1.2006
-1.1096,2.7959,0.08685
-0.19505,2.11305,-1.4105
-0.2681,0.6078,-1.7338
-1.1272,-0.77715,-0.9393
-1.19355,-1.18415,-0.8626
-0.81,-1.0547,-1.0927
-0.4394333,-0.8240667,-0.9263333
-0.3322,-1.0436,-0.6867
-0.4283667,-1.5204,-0.5273333
-0.3152,-1.916,-0.3952
0.0649,-2.3385,-0.5024
0.32815,-2.77745,-0.4869
0.1369,-3.0915,-0.4153
-0.28275,-2.86915,-0.5279
-0.584,-2.4905,-0.7121
-0.509,-2.1079333,-0.5595667
-0.17135,-1.79415,-0.1841
-0.20855,-1.68035,0.16535
-0.781,-1.42395,-0.003
-0.8938,-1.0529,0.27125
-0.3143,-0.4625,0.25285
0.69415,0.0807,0.78355
0.9586,-0.19905,0.62465
0.29015,-0.58915,-0.40155
-0.2318,-0.42565,-0.54735
-0.31865,0.3248,0.74675
-0.5135,1.34835,2.3091
-0.69745,2.53945,2.8183
-0.39955,3.79185,1.70135
-0.2064,5.1114,0.7132
0.7127667,5.9519667,0.6177667
0.66705,4.45355,-0.63705
0.24595,2.161,0.26995
0.4653,0.67855,-0.2749
0.2744,-0.48925,-2.2789
0.2691,-1.0948,-3.072
0.5330667,-1.0255,-1.8473667
0.5119,-0.62785,-0.1168
0.1562,-0.74365,-0.03115
0.02055,-1.04475,-0.70405
-0.10825,-1.28065,-0.9387
-0.123,-1.69765,-0.64495
-0.139,-2.3503,-0.5307
0.0122,-3.29745,-0.288
0.2772,-3.6726,-0.4261
0.4970333,-3.4446,-0.8794667
0.5937,-2.62825,-0.6156
0.20075,-2.24005,-0.6426
0.04485,-2.49405,-0.4592
-0.1061,-2.3409,-0.3484
-0.1263667,-1.6061,-0.248
0.2727,-0.87615,0.21595
0.53515,-0.4074,0.7589
0.76785,-0.10985,1.11605
0.6628,0.4702,0.9711
0.3104333,0.9880333,0.8672333
-0.5057667,0.9868333,1.2229667
-1.12655,1.08385,1.0091
-0.9907,1.6279,0.6739
-0.53005,3.16015,0.76765
0.7398667,6.5025333,0.3198333
-0.03605,6.82885,-1.9775
-1.14465,3.714,-2.3406
-1.75585,1.18635,-0.5867
-1.123075,-1.3057,-1.44625
0.6855,-1.00275,-2.1209
0.82975,-0.10075,-0.97565
-0.24025,-0.03915,-0.44005
-0.6871,-0.2932,-0.3304
-0.3019,-1.0662333,0.0500333
0.3464,-2.1542,0.2705
0.04945,-2.8298,0.23005
-0.60395,-2.9787,-0.52025
-0.8518,-2.9387,-0.7872
-0.6446333,-2.7157333,-0.7681
0.0271,-2.5686,-0.6992
0.4018,-2.7921,-0.5411
0.27645,-2.9426,-0.50075
-0.0752,-2.8843,-0.5978
-0.5107333,-2.3461333,-0.3495667
-0.5827,-1.5979,0.26945
-0.3819,-1.1354,0.58385
-0.27505,-0.6717,0.19395
-0.13905,-0.366,0.32625
-0.0536,-0.3033,0.808
-0.1956667,0.0012667,1.2046
-0.47155,0.9548,1.1899
-0.41475,1.3944,1.57995
-0.1747,1.59245,1.8024
0.67925,2.6422,1.49185
1.04375,5.23435,0.92985
-0.05675,7.2727,0.29795
-1.417,6.766,-3.37345
-0.6593,3.10505,-2.58785
1.3222,0.26995,0.61005
1.83425,-1.4876,-0.43165
1.1604,-1.93235,-2.2191
0.0829,-0.70635,-2.3421
-0.9543,0.272,-1.164
-1.33585,-0.1874,-0.3806
-1.1514,-0.85085,-0.3873
-0.6179,-1.21375,-0.725
0.3796667,-1.6506333,-1.1552667
1.1629,-2.0689,-0.8644
1.3938667,-2.6213667,-0.5084667
1.0512,-2.8928,-0.5586
0.2980333,-2.6573333,-0.7522
-0.3107,-2.2234,-0.8337
-0.30655,-2.19155,-0.7187
-0.0037,-2.372,-0.7099
0.1496,-2.4364,-0.6694
0.0604333,-2.027,-0.6340333
0.528,-1.5311,0.04585
0.58115,-1.28935,0.82345
0.165,-0.7724,0.5319
0.2145,-0.82855,0.33845
0.0396,-0.74145,0.5385
-0.08455,-0.76685,0.7256
-0.0927,-0.5557,0.6647
0.0803667,0.1888333,1.0477667
0.03595,0.9698,1.68675
-0.20355,0.9517,1.65765
-0.1034,0.7597,1.5856
0.014,1.2262,1.41835
0.4663333,3.84,0.7823333
0.9739,6.39945,-0.5268
0.85575,5.92565,-1.51545
-0.0082,3.2304,-1.4092
-0.5893,1.5145,-1.1824
-0.6379,0.0033667,-1.8347333
-0.37565,-0.2893,-2.5668
-0.3191,-0.04795,-1.3633
-0.5326,0.2255,0.2306
-0.818,0.0022,0.2666
-0.7864667,-0.7855,-0.657
-0.05645,-1.53105,-1.06505
0.6855,-1.54735,-0.4718
0.6886,-1.3268,0.01045
0.10685,-1.37815,-0.17155
-0.37685,-1.63705,-0.4612
-0.5488,-1.95295,-0.9485
-0.5288,-2.1332,-0.8853
-0.28155,-2.2651,-0.29715
0.02655,-2.2646,0.2123
0.2004,-2.2765,0.0694
0.5324667,-2.1347667,-0.1975667
0.4012,-2.17985,-0.47705
0.1221,-2.20185,-0.3202
0.0009,-1.8907,0.48325
-0.0646,-1.40515,0.9571
-0.13465,-1.0579,1.02205
-0.16345,-0.92435,0.8928
-0.05895,-1.0428,0.98895
-0.12425,-1.2523,0.95875
-0.2414,-1.19595,0.85255
-0.2044667,-0.8988333,1.1063
-0.11015,-0.61575,1.01855
-0.1762,-0.3925,0.6328
-0.2239,-0.062,0.3063
-0.2602,0.6287,0.35515
-0.2478,1.5421,0.89375
-0.1044,2.34305,1.6079
0.09485,2.96335,1.62075
0.2017,2.8687,0.2364
-0.13354,1.07074,-1.8926
0.4554,-0.8136,-0.9548
1.1238,-1.2445,-0.5157
1.3433,-1.2726667,-0.9931
0.8862,-0.7524,-1.7796
0.4449667,-0.0254,-1.9216667
0.5016,0.3225,-1.31305
0.4614,0.07305,-0.68385
0.3277,-0.3997,-0.19995
0.401725,-1.294425,-0.192625
0.3937,-1.35755,-0.062
0.1074,-0.9762,-0.00665
-0.1512,-0.8459,-0.0678
-0.2725667,-0.9608,-0.0836333
0.01845,-1.13185,0.11325
0.4335,-1.0059,0.0335
0.65805,-0.94105,0.5392
0.38135,-1.0536,0.6096
0.0274,-1.0133,0.4671
-0.2315333,-0.8325667,0.3294
-0.28865,-0.8101,0.3208
-0.2905,-0.9297,0.654
-0.0159,-0.9518,0.9291
0.46685,-0.6524,0.69875
0.7702,-0.04015,0.47855
0.47935,0.5898,0.904
-0.72395,1.6461,1.4156
-1.033,3.35015,-0.76555
-0.19195,4.5542,-3.72945
1.53425,2.25595,-4.49365
0.62755,0.1472,-1.18755
-0.89055,-1.00125,1.25325
-1.2297,-1.0916,0.2223
-0.25685,-0.2944,-1.18075
0.46075,0.37585,-2.1584
0.4736,0.68485,-2.5476
0.49095,0.67135,-2.0196
0.8894,0.34265,-1.0051
0.99795,-0.2993,-0.5101
0.38045,-0.7905,-0.4173
-0.6821667,-0.8281333,-0.6888
-0.68595,-0.91225,-0.82
-0.0855,-1.0575,-0.8135
0.3244,-0.9936,-0.7736
0.778925,-0.687625,-0.5392
0.2617,-0.13925,-0.5459
-0.08455,0.01935,-0.6128
-0.0764,0.0132,-0.6803
0.0066,-0.0426,-0.554
0.02025,-0.295325,-0.3435
-0.41935,-0.26635,-0.3695
-0.6495,0.0158,-0.57665
-0.5218,0.0461,-0.5803
-0.1327,-0.1984667,-0.299
0.0239,-0.6874,-0.0884
-0.3678333,-0.9310667,-0.0484667
-0.95775,-0.285,0.0754
-1.023,0.74195,0.36165
-0.7355,1.524,0.4814
0.2045,1.4113667,0.7312
0.709,0.12685,0.09275
0.32175,-0.8757,-0.3228
0.0553,-1.3412,0.0299
-0.4005333,-0.4489333,-0.1551
-0.06815,1.20245,-0.4151
0.16615,1.00855,-0.76095
-0.08165,0.1225,-0.63565
-0.353,-0.74165,-0.16375
-0.3865,-1.1147,0.2304
-0.1138667,-0.9756,0.4034
0.31885,-0.381,0.1442
0.29625,-0.08475,-0.59515
0.2286,0.03005,-0.72515
0.3016,-0.0731,-0.4151
0.3532,-0.2336667,0.1203333
0.2644,-0.3531,0.41065
0.0793,-0.22095,0.1309
-0.03215,-0.00885,-0.04395
-0.0125,-0.0093,-0.07675
0.019,-0.09995,-0.05825
0.07545,-0.2916,0.1233
0.0484,-0.416,0.1669
0.08085,-0.4201,0.0534
0.0083,-0.248,-0.0392
