accx,accy,accz
-0.5679,-0.237,0.5595667
-0.5564,0.63915,0.60995
-0.05865,1.1618,0.69705
0.54845,1.16345,0.5404
0.54315,0.8163,1.16535
0.314,0.431,2.2729
-0.147675,0.783725,2.486275
-1.04475,3.07615,-0.35225
-0.701,2.8392,-2.1552
-0.11485,2.94115,-2.9866
-0.15,1.8597,-2.7472
-0.207075,-0.83825,-1.30725
-0.7222,-1.464,-0.4456
-1.0391667,-0.6427,-0.8429
-0.5197,0.21075,-1.08555
0.5138,-0.1239,-0.993225
1.03625,-1.1702,-0.3108
0.42135,-1.8641,0.19975
-0.2959,-1.9739,0.3704
-0.7707333,-1.8162,0.4517333
-0.7716,-1.4739,0.11395
-0.13485,-1.08225,0.14015
0.5592,-1.0142,0.2299
0.8551,-1.2259,0.2188
0.78475,-1.43585,0.06795
0.1466667,-1.9599667,0.5187333
-0.74155,-2.06275,0.8554
-1.2858,-1.4408,0.8729
-1.35025,-0.79515,0.8392
-1.1677,-0.3008,1.1591
-0.6284,0.3218,1.4071
-0.0469,1.2018,1.50185
0.2559,1.5591,1.6186
0.52835,1.3107,2.7256
0.8948,0.6875,2.8897
1.014,1.87185,1.89045
-0.253,3.8707,-1.3033667
-1.65975,2.3444,-2.1348
-0.7197,0.6662,-2.02865
0.3525,0.0271,-1.767
1.0085333,0.1970667,-0.6790333
0.3102,0.3972,-0.7025
-0.9515,-0.0413,-0.74775
-0.70205,-0.211,-0.74125
-0.0666,-0.33635,-0.91245
0.26125,-0.906,-0.78905
0.425,-1.72695,-1.2034
0.6773,-1.9718,-0.6985
0.86595,-1.98185,-0.1369
0.507925,-1.5784,0.0806
0.00855,-1.38635,-0.04835
0.01905,-1.87475,0.3306
0.3847,-2.2765,0.7669
0.7197,-2.3298,0.94
0.7317,-2.1721667,1.1741667
-0.1779667,-1.1587333,0.7262667
-0.841,-0.2023,0.0466
-0.78915,0.25555,-0.22715
-0.1162,0.83235,-0.05575
1.1666,1.1413667,0.9850333
1.515,1.1856,2.6261
1.2059,0.8443,3.3379
0.1626,0.6172667,3.1279667
-0.7049,1.8055,1.9496
-0.2510333,2.9938,-0.6250333
0.7011,2.9949,-1.87865
0.83225,1.0361,-2.791
-0.19645,-0.90955,-1.90535
-1.4017,-1.574075,-0.4092
-1.4146,-0.0171,-0.5143
-0.1344333,0.9327,-0.44
0.7986,0.94595,-0.78205
0.674225,-0.7352,-0.61905
0.7769,-2.54325,0.5753
0.15755,-2.777,0.67305
-0.41035,-2.30285,0.2683
-0.689875,-1.1187,0.0484
-0.2523,-0.71005,0.41155
-0.2149,-1.09935,0.8751
-0.53125,-1.77555,0.95525
-0.7347,-2.2327,1.27585
-0.44485,-2.12235,1.3836
-0.09365,-1.61325,1.1002
0.0173,-0.79105,0.91295
-0.27805,0.7379,0.8576
-1.08425,2.14745,0.9162
-1.71155,2.24275,1.06985
-1.57355,1.3343,2.5876
-0.2639,0.3212,3.25205
1.9211,0.61435,1.74135
2.5615,2.69795,-0.737
0.7425,3.41835,-3.4507
-1.0244,1.8304,-3.59775
-0.3157,0.2475,-1.61665
1.28145,-0.9107,0.29875
1.9171,-1.0214,0.6569
1.1960333,0.1558667,-0.7218333
-0.3079,1.02155,-1.33975
-1.35965,0.7551,-0.4782
-1.61005,-0.0778,0.25715
-1.267,-1.2163,0.3159
-0.272275,-2.800625,-0.179975
1.05355,-2.65025,-0.28215
1.7303,-1.6653,-0.01635
1.7038,-1.0807,0.1639
1.3498,-0.9903,0.2765
0.277675,-1.241375,0.058925
0.17635,-1.90755,0.22355
0.7676,-2.1614,0.7782
1.0686,-2.1382,1.2341
0.9148,-1.92705,1.3583
0.3897,-1.4971,1.222
-0.3837667,-0.7754333,0.9335667
-0.8154667,0.3348667,-0.0988333
-0.0575,1.2076,0.1343
1.3686667,1.6617667,0.7417
1.465825,0.394875,3.9932
-1.3547,1.12115,2.67975
-1.9004,3.2902,-1.2089
-1.1144,4.0329,-3.918
0.4212667,3.1757667,-3.6921333
1.78885,-0.4894,-1.47535
1.3057,-2.1149,-0.4471
0.4083,-2.85185,-0.20055
-0.0829,-2.4171,-0.3717
-0.5263667,-0.8023,-0.6349
-0.58185,1.36635,-0.14515
-0.5673,2.0295,-0.5668
0.18065,0.9969,-0.2656
1.0791,-0.6694,0.4049
1.0078,-2.3138333,0.9262
0.00955,-2.65955,0.63685
-0.70845,-2.0523,0.1693
-0.83205,-1.63035,0.2432
-0.32505,-1.35755,0.52625
0.1118,-1.4092,0.5076
0.4875667,-1.8819333,0.6054667
0.56345,-2.3426,0.3603
0.47185,-2.14645,0.98915
0.2036,-2.04045,1.4369
-0.2326,-1.8519,1.4018
-1.1869333,-0.3461333,0.6846333
-1.28675,1.6747,0.8791
-0.8807,2.5518,1.82555
-0.45445,2.6328,3.114
0.8275,3.1631,2.81885
2.15025,4.2047,0.61355
1.8795,4.2339,-2.4313
-0.4295,2.4772,-3.87855
-1.49945,0.19745,-2.3279
-0.9796,-0.5685,-0.5112
0.3355333,-0.4629,-0.4101
0.90045,-0.31935,-1.2414
0.4688333,0.0136667,-1.0014
-0.1067,-0.0014,-0.4305
-0.3465,-0.2121,-0.2933
-0.3762,-0.6862,-0.32565
0.0164,-1.4702,-0.4484
0.5448,-1.8956,-0.30045
1.15885,-1.8701,-0.0823
1.40615,-1.6129,0.011
1.042,-1.5319,0.4917
0.2783333,-1.7172667,0.3834667
0.0647,-1.99875,0.55175
0.3129,-2.15885,0.52665
0.6862,-2.2131,0.6735
1.0078,-2.0336667,0.8948667
0.9285,-1.6786,1.0166
0.6465,-0.99405,0.6089
0.5313,-0.01765,0.3484
0.351475,1.5055,0.876175
0.3953,1.8074,2.38175
0.38805,1.8867,3.6861
-0.308,3.3425,2.8011
-1.20575,4.17175,-0.4312
-0.25,2.521,-1.9254
1.31405,0.04085,-1.0232
0.8337,-1.3918,-1.27085
-0.1329,-2.00665,-2.08945
-0.5058,-1.2903,-1.9157
-0.9540667,0.3390667,-1.0276333
-0.78305,0.9373,-0.3869
0.1352,0.3265,-0.29925
0.54235,-0.5673,-0.259
0.33,-1.49445,-0.1479
-0.125,-2.222,0.2052
-0.37275,-2.52105,0.4027
-0.3574,-2.3796,0.8284
-0.1519333,-1.9462333,0.3537667
0.2209,-1.637,0.373
0.1025,-1.63855,0.67495
-0.37655,-1.8438,0.84325
-0.63745,-1.9925,1.06175
-0.464,-2.1011,1.7165
-0.1624,-2.0601,2.269
0.111,-1.7052,2.1113
0.18175,-0.9363,1.35335
-0.3073,0.2532,0.32765
-1.04885,1.84115,-0.01835
-1.4142,2.5371,0.1922
-0.9905333,2.6014667,2.1259667
0.00065,2.6356,3.46405
0.6866,3.7091333,0.2458
0.5815,4.4376,-2.6009
0.0642,3.4623,-3.2459
-0.810925,0.058775,-1.8637
-0.4139,-1.5842,-0.36915
0.7748,-0.4734,-1.48595
1.0811,-0.0626,-1.6375
0.6775,0.2992,-1.3219
0.15655,0.041925,-0.643475
-0.2273,-0.5353,0.0667
-0.4202,-0.7122,0.2909
-0.388,-1.5839,-0.1600333
0.4887667,-2.4770333,-0.0256
1.2464,-2.3151,0.3298
1.0568,-1.9725667,0.4013667
0.3822,-1.5037,0.63015
0.1181,-1.30205,0.65415
0.207,-1.47245,0.41675
0.46015,-1.89785,0.69685
0.7677,-2.1979,1.1717
0.8587,-2.2145,1.3982
0.623,-1.9811,1.30975
0.3156,-1.4169,1.0718
0.0425,-0.1755,0.5211667
-0.01145,1.4244,0.0246
0.4337,1.8669,0.3153
0.53545,1.3397,1.83545
0.4783,0.7348,3.7108
-0.81092,2.29322,2.66852
-1.44175,5.72145,-3.14415
-0.19895,3.97985,-4.4127
0.2836,1.0773,-3.7193
0.74492,-2.0287,-0.66826
1.29185,-1.945,-0.7815
0.5277,-0.58385,-1.5228
-0.0626,0.31325,-0.99915
-0.1716,0.6273,-0.8275
0.09178,-0.36646,-0.38956
-0.3589,-1.7172,0.1762
-0.90355,-1.57585,0.15975
-0.8835,-1.2281,-0.1485
-0.02974,-0.79624,-0.24464
0.2099,-1.2718,0.08495
-0.13785,-1.66285,0.18105
-0.256525,-2.08975,0.721675
0.1522,-1.1950333,0.4416333
0.37755,-0.18485,0.6186
0.1562,0.4547,0.8037
-0.1888,0.7914,0.7929
-0.3266333,0.6308167,1.4276
0.65425,1.0565,1.0377
0.3783,2.9349,0.2375
-0.7146,4.0462,-0.5951
-1.65825,3.1574,-1.2088
-1.2051,0.67375,-1.18355
0.5268667,-1.6477333,-0.5703667
1.6513,-1.6339,-0.6537
1.2091333,-0.1831333,-0.9521667
-0.38285,0.3526,-0.5768
-1.5775,0.4203,-0.56715
-1.5273,0.27425,-0.6026
-0.2655,-0.8574,-0.18985
0.3936,-1.3479,-0.3076
1.0145333,-1.6499,-0.5353
1.37285,-1.3312,0.08585
0.6832,-0.86185,0.06925
-0.11405,-0.6357,-0.14965
-0.1512,-0.82995,0.0048
0.4756,-1.343,0.3198
0.848,-1.5998,0.43445
0.6045,-1.4144,0.44165
0.0279,-1.0281,0.4818
-0.127025,-0.9771,0.7009
0.21855,-0.626,0.79165
0.2156,-0.2965,0.57135
0.0813,0.0448,0.2663
0.064675,0.64645,0.951075
-0.23165,0.44965,2.0087
-1.1729,0.0782,2.31595
-2.01775,0.8259,1.4625
-0.899325,3.295125,-1.39435
1.40935,2.03645,-2.22795
1.3569,-0.63065,-1.51135
0.91815,-2.283,-0.3365
0.49495,-2.5947,-0.1522
0.1464,-1.5395,-0.616
-0.2983333,0.1644333,-0.9311
-0.5593,1.39535,-0.57225
-0.61165,1.19845,-0.43265
-0.02485,0.25675,-0.2204
0.7859,-0.69905,0.19825
1.05935,-1.4861,0.4519
0.4078,-1.7394,0.3541
-0.374,-1.2234667,0.1262
-0.265925,-0.801025,0.608625
-0.1127,-1.0598,0.65
-0.25175,-1.21485,0.38325
-0.4827,-1.3822333,0.4455667
-0.6705,-1.44,0.4065
-0.6216,-1.3215,0.6353
-0.497775,-0.9584,0.89005
-0.4089,-0.57875,0.6229
-0.14865,-0.18225,0.24565
0.0835,-0.1506,0.1573
0.2652,-0.18275,0.62975
-0.3599,-0.1141333,1.4722
-1.28055,0.1409,1.4402
-0.82785,0.90945,1.14535
0.69505,3.09205,0.9495
1.4278,4.2791,0.4787
0.89215,3.3512,-0.4999
0.0420667,0.5231,-0.9781333
0.40355,-1.13965,-0.9415
0.88125,-1.56195,-0.8621
0.9573,-1.0924,-1.2303
0.42702,-0.333,-1.30884
0.0873,0.72175,-0.27515
0.1701,0.8604,0.108
0.23222,0.31078,-0.43022
0.4823,-1.23235,0.12095
0.78715,-1.81385,0.38105
0.90735,-1.5955,0.2689
0.58495,-1.15465,-0.0123
0.0615,-0.73045,0.1147
-0.12,-0.6947,0.0316
0.213,-0.85265,0.5703
0.4707,-1.0396,0.7195
0.6374333,-1.1765,0.4154667
0.69135,-1.1439,0.28735
0.5305,-1.16145,0.49525
0.29655,-1.12385,0.70875
0.15445,-1.00615,0.7846
0.12495,-0.77185,0.6388
0.2835,-0.4771,0.3052
0.4242,-0.24035,0.3903
0.4379,0.06555,0.70565
0.28565,0.45875,1.13125
-0.13395,1.41935,1.4603
-0.62315,4.0585,0.4483
-1.17795,5.01535,-1.86275
-0.7764333,1.8694,-1.4455667
-0.4381,-0.5051,-0.0486
-0.2279,-1.9513,-0.0063
0.4724,-2.92635,-1.05515
1.5226333,-1.5695667,-1.4167667
0.7482,0.1699,-0.7623
-0.4741,0.7007,-0.3818
-1.31255,0.8636,-0.6239
-1.0772667,0.3484,-0.5901
0.3251,-0.725,-0.23825
1.1243,-1.2007,0.1615
1.0398,-1.1829,0.1548
0.44665,-0.79875,0.1066
-0.3563667,-0.3484333,-0.0220667
-0.6991,-0.2672,0.11205
-0.64205,-0.5886,0.28545
-0.6255,-1.04345,0.2016
-0.76,-1.25195,0.17245
-0.566375,-1.1588,0.3364
-0.1835,-0.7246,0.62915
0.00825,-0.47375,0.54175
0.0545,-0.43985,0.4008
-0.07425,-0.66765,0.546475
-0.3718,-0.8299,0.54165
-0.18365,-0.5594,0.562
0.2581,0.27475,0.6287
0.1986,0.81695,1.11055
0.1039,0.80035,1.60065
0.46165,2.22585,1.1487
0.4379,3.4283,-0.0769
-0.2303,2.7496667,-1.9299
-0.37125,0.4296,-1.53405
-0.4633,-1.1127,-0.87685
-0.1865,-1.956,-0.8638
0.46185,-1.43575,-0.74785
1.10445,-0.1248,-0.8093
0.94275,0.97655,-0.64865
-0.0044,1.243,-0.5462
-0.958,0.9302,-0.73085
-1.08995,0.12725,-0.5226
-0.3735,-0.93965,-0.34965
0.4936,-1.674,-0.3958
1.4178667,-1.6405333,-0.1459333
1.1899,-1.0648,0.02315
0.2135,-0.54865,-0.0979
-0.3266,-0.30445,-0.11445
-0.4266,-0.334,-0.1953
0.29635,-1.051375,-0.08085
1.0687,-1.5079,0.1348
0.8606333,-1.0961,0.2972
0.1162,-0.4253,0.45935
-0.4443,-0.346475,0.4125
-0.0201,-0.7123,0.36
0.3518333,-0.8365333,0.1357333
0.576925,-0.52235,0.07915
0.3626,-0.20265,1.1126
0.0552,-0.08425,1.31245
-0.30565,0.76185,1.26335
-0.623425,2.59975,-0.375075
0.28325,2.0252,-1.33985
0.30815,0.5368,-0.7892
-0.1485,-0.5093,-0.4804
-0.3953,-0.8562,-0.6398
-0.727675,-0.659375,-1.826325
0.1084,-0.07295,-1.6186
0.559,0.2078,-0.80545
0.3127,0.1763,-0.328
-0.19405,-0.0744,-0.66285
-0.66305,-0.2077,-0.8767
-0.7013,-0.1046,-0.48785
-0.3886,0.1717,0.14625
-0.1092,0.1749,0.14325
0.14435,-0.24845,-0.3268
0.3045,-0.874825,-0.06935
0.11725,-1.1287,0.62555
-0.1219,-1.1905,0.7375
-0.21775,-1.092,0.47375
-0.1870667,-0.8762667,0.2382667
-0.23465,-0.8775,0.2468
-0.2873,-0.82645,0.84805
-0.2803,-0.66085,0.9024
-0.2216,-0.5455,0.8834
-0.1284667,-0.4875333,0.8686667
-0.10325,-0.60305,0.57365
-0.20305,-0.8306,0.54025
-0.2937,-0.94915,0.67285
-0.3519,-0.7988,0.7593
-0.4435667,-0.4949667,0.7745333
-0.5416,-0.33,0.8987
-0.25265,-0.4561,1.1427
0.3939,-0.56415,1.3979
1.3634,0.12785,0.9728
1.6197,1.4081,0.2523
0.4596,2.4605,-0.755925
-1.7493,3.0397,-0.7734
-2.2663,2.70235,-0.9426
-0.7293333,1.0053667,-0.6799667
1.103075,-1.859175,-1.10905
1.4378,-3.0082,-1.4755
0.9599333,-1.723,-1.1218667
0.2193,0.4117,-0.60455
-0.4194667,1.2234667,-0.4551667
0.0917667,0.8229667,-0.7293667
0.99895,-0.23335,-0.2563
1.3663,-0.9363,-0.0264
1.32005,-1.342,0.1706
0.58455,-1.4089,0.25765
-0.3069333,-0.9328667,0.1987
-0.41475,-0.4403,0.1457
0.0466,-0.5171,0.0132
0.555,-0.7978,-0.0636
1.1097333,-1.1982667,0.0572667
1.0337,-1.4079,0.2557
0.2991,-1.1945,0.41885
-0.21,-0.833,0.5068
-0.5758333,-0.5271667,0.4917667
-0.3167,-0.5013,0.58935
0.1503,-0.3338,0.3276
0.46585,-0.10745,-0.08395
0.55865,-0.0226,-0.15575
0.3029,-0.1009,0.2633
-0.1486,-0.3037333,1.2450333
-0.8515,-0.0705,2.0607
-1.10925,2.15725,1.04045
-0.91765,4.0682,-1.03305
0.4986,3.6043,-2.0123
0.92765,1.90375,-1.6368
0.03695,-0.2877,-1.4604
-0.22665,-2.0336,-1.0116
-0.02355,-2.8415,-0.82675
0.508,-1.6273,-1.2945
0.33085,0.29195,-1.3979
-0.10695,1.46815,-1.3161
-0.0831,1.56065,-1.33735
0.312,0.675,-1.16595
0.42545,-0.5585,-0.52545
0.14885,-1.35645,0.2289
-0.4035,-1.5851,0.49645
-0.64275,-1.37125,0.1929
-0.16765,-0.7664,-0.095
0.36355,-0.35205,-0.113
0.46515,-0.43165,0.02475
-0.0448,-0.8779,0.0581667
-0.7038,-1.1794,0.3644
-0.7795,-1.2494,0.5398
-0.5948,-1.317,0.6568
-0.4117,-1.19585,0.88005
-0.2986,-0.9356,1.0601
-0.2896,-0.3579667,0.7781667
-0.2533333,0.0953667,-0.1538667
-0.0997,-0.2341,-0.2458
0.1216,-0.519,-0.02105
0.43435,-0.59105,0.46045
0.5539333,-0.4468,0.9870333
0.731,0.051,1.2508
0.6965,3.45595,0.151725
-0.92895,3.75275,-1.79345
-1.74915,1.5605,-1.8167
