accx,accy,accz
0.03565,-0.1049,-0.0615
0.0052667,-0.0819,-0.0147
-0.0018,-0.1288,0.04445
-0.01655,-0.2141,-0.03335
-0.0082,-0.2479,-0.0544
0.0219333,-0.1767667,-0.0658
0.06065,-0.12865,-0.11005
0.0739,-0.1404,-0.1409
0.11625,-0.1875,-0.1472
0.15225,-0.22175,-0.13795
0.1793,-0.2638,-0.05735
0.15935,-0.12485,0.04575
0.0146,0.0106,-0.193
0.1410333,-0.1121333,-0.1726333
0.1524,-0.1417,-0.07275
0.0928,-0.29405,-0.15135
0.0511,-0.3352,-0.137
0.0536,-0.35615,0.1213
0.02825,-0.3483,0.003
0.0833,-0.2665,0.032
0.16495,-0.3489,0.4821
0.1652,-0.52455,0.60395
0.12775,-0.53575,0.2831
0.1922,-0.41845,0.08405
0.26995,-0.37215,0.14355
0.30585,-0.36815,0.1723
0.2955,-0.3406,0.0571
0.2303,-0.2739,0.06185
0.21645,-0.2497,0.16585
0.2289,-0.34215,0.15625
0.1903,-0.36365,0.1684
0.13125,-0.3936,0.2115
0.041,-0.55315,0.14855
-0.13205,-0.8419,0.06355
-0.4015,-1.1026,-0.03805
-0.6881,-1.03865,-0.01605
-0.8533,-0.5918,0.2055
-0.8105,-0.0822,0.4373
-0.6565333,0.7875,0.6477667
-0.40725,1.70775,0.92445
-0.08745,1.86775,0.7515
-0.33635,0.82475,0.96885
-0.76265,-0.5031,0.96535
-0.80215,-1.36555,0.77855
-0.668,-1.67505,0.6242
-0.60855,-1.7275,-0.05025
-0.4903,-1.547,-0.1817
-0.4137,-1.3743,0.0224
-0.3537667,-1.249,0.3327333
-0.3181,-1.1744,0.49855
-0.29635,-0.81375,0.43365
-0.28525,-0.26115,0.48655
-0.31855,0.18055,0.8338
-0.3085667,0.1805667,1.2971667
-0.49145,-0.25295,1.49415
-0.346,-0.3999,1.3078
-0.2145333,-0.4880333,1.2156
-0.259,-0.6759,1.2026
-0.4549,-0.7409,1.2647
-0.8766667,-0.4567,1.0842
-1.2289,0.0659,1.0677
-1.3894667,0.4235333,1.0885667
-1.3976,0.65025,1.2028
-1.318,0.5827,1.1441
-0.9355,0.81455,0.6846
-0.0207667,2.0443667,-0.3724
0.90265,2.9895,-1.37655
1.0804,3.0453,-1.5093
0.998,2.5886,-1.6258
1.0321333,0.3325667,-1.6928
1.2018,-3.1306,-1.4831667
1.09835,-2.40335,-1.3421
0.64,-0.8266,-1.0591
0.29055,0.70385,-0.95815
0.5376333,2.5065,-0.6498
1.40005,2.4414,-0.1
1.45565,-0.10025,0.28035
0.6949,-1.843,0.0389
0.10545,-2.63585,-0.31175
-0.35395,-2.7264,-0.2572
-0.5687,-2.57965,0.07165
-0.45885,-2.21835,0.6545
-0.06075,-1.49495,0.68365
0.0911,-0.8802,0.5697
0.0807,-0.5179333,0.6026667
-0.01645,-0.74715,0.74035
-0.0911,-0.95165,0.89105
-0.1905,-1.12455,0.9099
-0.22385,-0.9206,0.7651
-0.1008,-0.13945,0.61555
0.21275,0.2277,0.29105
0.3504,0.15425,0.5634
0.22275,-0.04045,1.50945
-0.1937,0.1755,2.2312
-0.88445,1.2275,1.97335
-0.65045,3.3367,0.57315
1.68625,5.3742,-0.91415
3.5273,4.34645,-1.5838
2.7637,1.9285,-1.4486
-0.07116,-1.88922,-1.95728
-2.476,-2.6163,-3.2385
-2.5554,0.14505,-2.32435
-1.60145,3.65765,-1.58745
0.5962667,4.7322333,-1.7612333
1.11875,2.11525,-1.65285
0.9056,-0.1096,-0.9582
0.5383,-2.4553,-0.5731333
-0.0592,-4.0381,-0.6584
-0.4847667,-4.8771667,-0.9652
-0.90715,-4.713,-1.34425
-1.00035,-3.21485,-1.25725
-0.9571,-1.78135,-0.921
-0.7586,-1.2525,-0.4773
-0.57915,-0.99155,0.0237
-0.8163667,-0.6549333,0.2751
-1.1089,0.08455,0.3719
-1.2458,0.47535,1.0083
-1.2925,0.688,1.3825
-1.1553,1.0862667,1.3147667
-1.4136,2.03285,0.94965
-0.4874,3.0315,1.12005
1.58975,4.19345,0.67785
2.604,4.91,-0.414
2.8434333,4.2271333,-2.4905333
2.03685,1.52715,-3.77365
1.50845,-0.5413,-3.51035
0.49395,-2.41125,-3.17485
-1.18445,-2.90455,-1.6044
-1.40205,-1.50835,-0.67705
-1.0106,1.71765,-1.4086
-0.56985,2.8293,-1.4619
0.04785,1.85095,-0.9093
0.6977,-1.350875,0.010525
0.61095,-3.39295,0.03695
0.27755,-3.42105,-0.65795
0.33265,-2.7815,-0.9103
0.472325,-2.317925,-0.4843
0.6429,-2.38035,0.158
0.61955,-2.14925,0.40025
0.29785,-1.41095,0.378
0.843,0.664175,0.665875
0.9032,2.2195,1.05565
1.4048,2.3966,1.9981
0.5344,1.886,3.2729
-1.14445,4.922025,0.864475
0.6442,4.9214333,-3.6435333
1.835,2.1333,-3.5162
0.71375,-0.5203,-3.05245
-0.51626,-3.39832,-1.14404
-0.5247,-1.001,-0.63865
0.2114,0.5614,-1.3669
1.4542,1.6808333,-2.0136333
1.2901333,0.3525333,-1.0711333
0.0029,-1.98075,0.0698
-1.0229,-3.2367667,0.4220333
-1.84565,-3.3587,-0.0496
-2.0606333,-2.4099,-0.3529
-0.8656,-1.6361,-0.1348
-0.40095,-1.49445,0.30725
-0.2771,-1.3279,0.3841
-0.2961,-0.70706,0.55346
-0.6998,-0.26585,1.0075
-1.1145,-0.2696,0.7603
-2.24235,0.65625,0.9213
-0.86972,3.33916,2.0847
2.35335,6.7954,-0.0274
3.1426,4.83375,-3.04545
2.058575,0.943575,-3.4875
0.3161,-2.6217,-2.37405
0.513,-2.8663,-0.2219
-0.4193,-1.05925,0.2664
-1.0601,0.9975,-0.6134
-1.1020667,2.9143667,-1.8023667
-0.6438,1.9951,-1.70475
-0.31685,-0.2778,-0.88015
0.6635,-2.37855,0.1327
1.4811,-4.31605,0.36925
1.4247,-5.0923,-0.42055
0.87925,-4.3599,-1.1182
0.51455,-2.72445,-1.1036
0.4852,-1.6438,-0.62345
0.7124,-1.4308,0.244
0.73765,-1.62205,0.88735
0.5171667,-1.9100333,1.2293
0.3504,-1.1631,0.7825
1.1483,0.3487,0.7304
1.99705,2.2408,0.88415
2.3654,3.02145,1.9681
0.75755,2.633,3.4394
-1.3154,3.6784333,1.219
-1.3365,4.6362,-2.1129
0.0045,4.5778,-2.8621
1.8413667,2.701,-3.5125333
0.1630333,-0.8364667,-2.9904667
-1.0869,-1.8334,-2.3074
-1.6742,-1.2185,-0.90025
-1.5299,-0.28545,0.1904
-0.11585,0.81145,-0.1963
1.5507,1.352,-0.8163667
1.4407,-0.0117,-0.67565
0.8022,-1.4022,-0.4766
0.1232667,-2.8150667,-0.5756333
-0.20255,-4.104175,-0.899525
-0.7637,-3.2387,-0.50255
-1.2313,-1.92175,-0.0031
-1.827,-1.65255,0.69205
-1.926925,-1.484775,1.189
-1.3276,-0.8958,0.7848
-0.4875333,-0.2258,0.5472333
0.0608,0.4636,0.4644
-0.86564,1.77634,1.29838
-0.3088,3.08325,3.7226
1.6818,4.9626,2.411
2.6579,5.678,-0.4412
3.24982,2.00262,-3.83056
1.4344,-1.64315,-2.3263
-0.48745,-2.76375,-1.3541
-1.1703,-2.0373,-0.4691
-1.50388,1.66526,-0.4799
-1.44655,2.77435,-1.72895
-0.68065,0.6872,-1.38975
-0.3264,-0.7903,-0.1849
0.26655,-2.6642,0.71895
0.5486,-4.8771667,0.6975
0.3583,-4.94585,-0.4872
0.90875,-3.6706,-1.1486
1.37665,-2.76715,-0.55215
1.3166,-2.5852,0.3785
1.0324667,-2.2789,1.5269
1.0194,-1.5366,1.71365
0.8991,-0.81225,1.2423
1.02805,0.33885,0.82275
1.26,1.6909,0.5637
2.01754,3.24752,1.47804
0.0171,3.0797,3.8236
-1.79725,4.37145,1.3538
-1.94025,4.8465,-2.9137
0.37085,3.2531,-4.38455
1.83685,0.54905,-2.9948
-0.0957333,-2.5862333,-1.8434
-1.0723,-2.3837,-0.4191
-1.49075,-1.0229,0.28095
-0.94915,0.6633,-0.34815
1.0628,1.5327667,-1.8149333
1.6748,0.3331,-1.7007
1.1383,-1.0619,-0.9357
0.48125,-2.5186,-0.42445
-0.3064333,-4.1784667,-0.3675667
-0.9188,-4.48285,-0.65015
-1.4129,-3.3727,-0.607
-1.91995,-2.0208,-0.29045
-1.8838,-1.4004,0.2974
-1.2641333,-1.0873,0.9865667
-1.0767,-0.8827,1.2884
-0.9966,-0.8413,1.1271
-0.9055333,-0.5610333,1.0199
-0.9415,-0.0472,1.0386
-1.07372,1.39094,0.94508
-0.83855,2.73105,2.38955
0.9072,3.84465,2.9235
2.6742,4.609975,-0.44655
2.18605,1.51295,-4.1528
1.0777,-0.25415,-3.48135
0.0779,-2.46505,-2.52845
-1.02185,-2.45755,-1.1091
-0.6307,0.27385,-0.72345
-0.42845,2.26365,-1.2623
-0.20415,2.4449,-1.2735
-0.3468,0.049975,-0.301
0.44835,-2.6761,0.65885
0.77325,-3.9724,0.61715
0.81385,-4.1129,0.05055
0.95755,-3.25415,-0.0233
1.079,-2.4862,0.1675
0.9051,-2.1298333,0.5868667
0.7115,-2.13685,0.99185
0.4677,-1.90525,0.9253
0.1228,-1.5599,0.9343
0.07814,0.23892,0.94978
1.1616,2.1024,1.0527
1.7156,1.9784,1.9905
1.1602,1.4911,3.0524
-0.235,1.6457,3.51575
-1.38195,3.2084,-0.90225
1.62155,3.28505,-3.59525
2.2264,2.6895,-3.6665
1.0891,0.4342,-3.31725
-0.8508,-1.0695667,-1.5544333
-1.74915,0.28635,-0.05915
-0.74215,1.3959,-0.2603
0.93195,1.63625,-0.9798
1.912,1.216,-1.2073
2.1204,0.20675,-0.92265
1.4741,-2.1034333,-0.1808
0.1626,-4.20605,-0.12725
-0.4049,-4.83835,-0.67425
-0.91035,-4.4131,-0.93025
-1.2037,-3.3862,-0.6138
-1.5072,-1.4930667,-0.2048667
-1.55235,-0.3993,0.38065
-1.50315,-0.4894,0.99895
-1.2907,-1.0565,1.2162
-0.926625,-1.090725,1.424875
-0.1407,-0.365,1.46425
-0.06935,0.5321,0.90935
-0.4922,1.3201,0.7307
-0.9332333,2.0002667,1.8633667
0.6831,2.77965,2.7403
2.206,3.3057,1.8046
2.3877333,4.1825,-0.8572
2.2111,3.3515,-3.7069
1.041575,0.612525,-4.00415
0.4288,-2.1663333,-2.4522
0.1698,-1.6328,-0.80015
-0.2671,0.32755,0.41595
-1.2736,2.8971,-0.7804
-0.9918,1.24305,-1.1655
-0.539,-0.79295,-0.7631
0.5163,-3.05765,0.22895
0.90185,-4.3498,0.6733
0.9534667,-4.0170333,0.3094333
1.1602667,-2.6870667,-0.2043333
1.3302,-2.28275,0.1924
1.0649,-2.3164,0.9402
0.50544,-2.37634,1.5309
-0.04325,-1.13555,1.25475
0.48675,0.80315,0.737
1.2566,2.3518,0.3859
1.9333,2.536725,1.426375
0.4006,1.2611,3.8778
-1.8437333,2.5832667,2.5962667
-2.5318,5.4891,-1.2696
-0.34805,5.347,-3.49275
1.9636333,1.9908333,-4.4374
1.03215,-1.6288,-2.6286
-0.4689,-2.02825,-0.65695
-0.8227,-1.0639,0.8502
-0.54485,0.3097,0.9402
1.6230333,2.3045,-0.7850333
2.9731,2.12715,-1.911
2.1419,0.18835,-0.96535
1.1051,-1.5518,-0.0504
0.3842,-2.7448,0.1894
-0.69935,-4.69335,-0.41135
-1.41145,-5.3484,-1.12485
-1.70285,-4.0701,-0.8203
-1.52285,-1.8482,-0.1431
-0.9761,-0.8991,0.5666
-1.0241,-0.410075,0.67795
-1.04195,-0.911,0.80455
-0.61385,-0.69835,1.2548
-0.4418,-0.2944,1.4698
-0.2656667,0.7028,1.4396667
-0.6529,1.9768,1.71805
-0.3869,2.1711,2.882
1.11845,3.00935,2.45455
3.091025,4.7504,-1.543675
2.25165,2.1526,-4.7283
1.50745,0.03635,-3.7395
0.7095,-1.86575,-2.0419
-0.393,-2.06195,-0.758
-0.811425,0.003475,0.0086
-1.03425,2.73555,-1.3241
-0.714,2.2768,-1.43615
-0.37445,0.19395,-0.76765
0.1008,-1.6697,-0.0363
0.7948333,-3.7191333,0.5623667
0.891,-4.8708,0.2974
0.5374,-4.55365,-0.12165
0.6513,-3.5023,-0.328
0.858,-2.8813,-0.2676
1.1102333,-2.3178,0.5543333
1.14215,-1.8497,1.6435
0.8718,-1.4057,1.63935
0.6586,-0.74355,1.4043
0.8741,0.45775,0.7895
1.2313,1.9412,0.3806
1.9138,2.9537333,1.4315667
1.043,3.1075,2.4917
-0.58355,4.4815,1.51175
0.55398,4.55738,-3.25188
0.73075,0.5649,-3.0899
-0.7725,-2.3212,-1.84305
-1.0366,-2.608,-0.8088
-1.1335,-1.20245,-0.0468
-0.0437667,1.7707333,-0.5954
2.04645,2.9786,-1.8448
2.14905,1.6949,-1.80505
1.24735,-0.61695,-0.76935
-0.1692,-3.02705,-0.17635
-1.151,-4.7839,-0.2699
-1.3733,-5.5976,-1.00255
-1.28765,-5.4394,-1.35255
-1.0837,-4.33035,-0.8688
-0.6254,-2.6102,-0.2807
-0.5847667,-0.8986,0.3145333
-1.1037,0.7613,0.68785
-1.5693,0.8777,0.8132
-1.5216,-0.07545,0.9996
-0.7412,-0.5126,1.4853
-0.1276667,-0.6037,1.6984667
0.3134,0.1376,1.1316
-0.4216,2.53315,1.4341
-0.219,4.16785,1.855
1.5881,5.8222,-0.3229
2.1046,3.0121,-3.71215
1.63235,0.6551,-3.56385
1.11705,-1.61785,-3.1767
0.096125,-2.955325,-1.652225
-0.1581,-1.15045,0.21535
-0.6469,1.1612,-0.61195
-0.85515,2.63795,-1.653
-0.585175,0.774925,-1.329075
0.0949,-2.10735,0.25005
0.6542,-3.4917,0.64245
0.6607,-3.81885,0.2181
0.7266,-3.16445,-0.20725
0.87595,-2.2897,-0.20245
1.04155,-1.8273,0.1283
1.28225,-1.73765,0.491
1.2943333,-1.6015667,0.9188333
0.3137333,-0.596,0.9198333
0.0128333,1.3398,0.6309
1.1738,2.6562,0.6884
2.5658,2.47435,1.49515
1.2428333,1.2543,3.2900667
-1.4413,1.681,2.3974
-1.2514333,3.4113,-1.6236
0.8388,2.5278,-4.92925
1.29715,-0.0235,-4.84585
-0.520475,-0.9783,-2.750125
-1.5148,0.8449,0.26115
-0.99625,2.23005,0.57345
0.1402,3.0169,-0.7127
1.3641,2.8454,-1.6311
2.598625,0.847025,-1.231975
1.5769,-2.38225,0.41965
0.3776,-4.1018,0.3453
-0.3986,-4.7159,-0.2634
-0.9885667,-4.4151333,-1.1734667
-0.918025,-2.471,-1.0059
-0.60985,-1.16275,-0.014
-0.9999,-0.99025,0.6555
-1.4689,-0.9837,1.13985
-1.6053,-0.834275,1.248125
-1.5025,0.3649,0.95855
-0.86315,2.1982,0.60235
-1.0511,3.2749,0.8669
-0.6772333,3.1148,2.152
1.4534,2.4765,3.11245
2.84765,2.70695,0.91805
2.94935,2.9603,-2.0475
1.51375,0.607875,-4.313925
0.82365,-1.40985,-2.74285
0.74025,-1.23995,-0.8768
0.7834,0.0419,0.3062
0.2547,1.523,-0.2091
-0.502,2.1989333,-1.6293333
-0.6317,0.98675,-1.8056
-0.6452,-0.46555,-0.40695
0.01085,-2.5656,0.7401
0.8117,-4.16185,0.9474
0.9257,-4.3864,0.3675
0.8115333,-3.8231667,-0.3496333
0.8323,-2.7957,-0.2363
0.7761,-2.28665,0.23375
0.7743,-1.85805,0.8451
0.828,-1.5698,1.1643
0.8227333,-1.2624667,1.283
0.1954,-0.12415,1.0546
0.4526,1.0713,0.1859
1.7595,2.1605,-0.1002
2.5246,2.06085,1.36425
0.7069,1.0616,3.62355
-2.0384,2.1861,1.9429333
-2.3141,4.2862,-1.8338
0.1294,4.34595,-3.30595
2.2791333,2.1185,-3.654
0.76295,-0.396,-2.9051
-0.6122,-1.60085,-2.08535
-1.30515,-0.84585,-0.8089
-1.2417,0.1302,-0.1143
-0.36605,0.9624,-0.36935
1.18485,1.77925,-1.0279
2.23245,1.4738,-1.41635
1.7122667,-0.4627,-0.866
0.29195,-2.7653,-0.3781
-0.4691,-3.7815,-0.4767
-1.2848333,-4.4345333,-0.7795333
-1.3043,-4.23185,-0.8661
-1.0006,-3.1326,-0.6442
-0.9333,-1.5318333,-0.0015333
-1.0653,-0.3192,0.8408
-1.39985,-0.10925,0.9151
-1.4485,-0.6144,1.0594
-1.08375,-0.79505,1.2622
-0.6702,-0.45145,1.18315
-0.152875,0.341325,0.653725
-1.2229,1.6592,1.3646
-0.3802,2.5283,2.8622
0.9173,3.0094,3.1097
2.1589,3.2599333,1.3484667
2.90655,3.1202,-1.8677
1.52105,1.53445,-3.2587
0.24465,-0.45265,-3.5888
-0.0905,-2.3241,-3.8962
0.4402333,-2.6378333,-2.6941667
1.146,-0.8237,-0.38505
0.58015,1.37785,0.50735
-0.37835,3.58055,-0.75655
-0.4096,3.8853,-1.5892
-0.6726,1.9032667,-1.2788
-0.9715,-0.92155,-0.1517
-0.1337,-2.94215,0.5738
0.05705,-4.05015,0.182
0.29115,-3.5931,-0.48425
0.8763,-2.6118,-0.7369
1.2947333,-1.9535,-0.5738
1.54875,-1.8328,0.05265
1.6158333,-1.8384667,0.8989667
1.1451,-1.6586,1.0212
0.851,-1.5035,0.937
0.27045,-0.56915,0.724025
0.0112,0.5829,0.3289
0.6365,1.7971667,-0.0234
1.8751,1.982,0.2977
2.13245,1.19525,1.45645
0.11815,0.82325,2.62785
-1.1400667,2.7522333,0.5291
0.4874,3.31405,-1.74105
1.828,2.7139,-2.2104
1.6134333,1.5834667,-3.0245333
0.07385,-0.40175,-2.98275
-1.1217,-1.7013,-2.192
-1.54905,-1.02905,-1.4088
-1.0101,-0.0602,-0.7763
-0.09185,0.5103,-0.62155
1.4715,1.5376,-0.7425333
2.30765,1.52205,-0.85775
1.8079,-0.00865,-0.64
0.729,-1.5432,-0.344
-0.342,-2.62755,-0.3038
-1.1799667,-3.3362667,-0.5658667
-1.14215,-3.07535,-0.55485
-0.73125,-1.9674,-0.47365
-0.70475,-0.74915,-0.18265
-0.902,-0.3028,0.2115
-1.1272,-0.3212,0.6775667
-1.12615,-0.54065,0.7954
-1.0002,-0.59835,0.8598
-0.74295,-0.5257,0.97695
-0.4724,-0.5676,0.9174
-0.0872667,-0.6185,0.6894333
0.2055,-0.58095,0.16015
-0.132,-0.114,0.0436
-0.51005,0.51965,0.7698
-0.2675,0.6468,1.5919
0.6721333,0.9889333,1.8722
1.8089,1.9612,0.781
1.7384,3.33595,-1.261
1.0406,3.46,-2.8508
0.27145,2.05955,-3.5226
0.30515,-0.543275,-3.415875
1.6120667,-0.7298333,-1.8039333
1.45545,0.74945,-0.5839
0.9103,1.6093,-0.5256
0.3677,1.8857,-0.6954
-0.684575,1.659925,-0.958975
-1.1004,0.1009,-0.8036
0.1819,-1.2797333,-0.5414667
1.3807,-1.9065,-0.3082
1.548,-1.8261,-0.55835
0.9957,-1.50585,-1.05735
0.52795,-1.3336,-1.1432
0.8363667,-1.0384,-0.5972333
1.0238,-0.6797,-0.0932
1.01745,-0.5049,0.0354
1.04215,-0.6786,-0.0158
0.8835,-1.0245333,0.0966667
0.4694,-1.0256,0.4301
0.222,-0.7616,0.5279
-0.0389667,-0.3636333,0.1061
-0.0717,-0.33705,-0.72875
0.0718,-0.76735,-0.95905
0.41255,-0.9814,-0.66
0.519775,-0.274275,0.300675
0.0144,0.3691,1.47525
-0.66985,0.7838,2.145125
-0.5735,1.7957,1.2959
-0.40205,2.35575,0.43965
1.0223667,2.2,0.1787
2.11085,0.9641,0.2485
0.9985,-0.12565,-0.2449
0.08155,-0.7532,-0.3537
-0.5192,-0.9171,-0.2195
-0.6419,-0.7184,-0.3103
-0.60015,-0.13255,-0.73325
-0.0541,0.35705,-1.16615
0.7121,0.4202,-1.54135
0.8343,0.1793,-1.7204
0.4486,-0.1718,-1.6558333
0.0825,-0.57155,-1.30755
-0.32765,-0.5826,-1.05375
-0.45,-0.4646,-0.9587
-0.4067,-0.1685667,-0.8871
-0.18725,0.0789,-0.78585
-0.0411,0.0523,-0.5377
0.0333,-0.0248,-0.2351
0.0691,-0.09095,-0.01265
0.085,-0.3008667,0.1262333
-0.0604,-0.6477,0.19375
-0.2069,-0.7344,0.1118
-0.27295,-0.72975,0.01115
-0.2136,-0.7616,0.0522
-0.1375667,-0.7744667,0.1967333
-0.1324,-0.53335,0.2588
-0.1516333,-0.3257,0.2613667
-0.2562,-0.4073,0.3793
-0.3532,-0.52025,0.4158
-0.5352,-0.6549,0.6036
-0.5955,-0.90145,0.75855
-0.4593,-1.0126,0.5268
-0.3340333,-1.0435667,0.4819333
-0.384,-0.93925,0.63275
-0.3658,-0.295575,0.64945
-0.2424,-0.0244,0.4787
-0.0757333,-0.3086333,0.6295
0.0044,-0.5265,0.9129
0.04545,-0.60275,1.08165
0.1644,-0.5424333,1.0871333
0.272,-0.36125,1.04165
0.1377,-0.2729,1.3549
0.022,-0.2175,1.681
-0.11495,0.0163,1.7623
-0.6192,1.0330667,1.2087333
-1.0931,2.2562,0.1005
-1.2818,2.25755,-0.5047
-1.0771,1.5132,-0.4762
-0.75455,0.637,-0.42865
-0.3514667,-0.2461333,-0.4566333
-0.3598,-0.64635,-0.6432
-0.2101,-0.7807,-0.95535
0.42355,-0.54905,-1.46915
1.1211,-0.49835,-1.9951
1.47175,-0.82155,-2.2369
1.65895,-0.98255,-2.04265
1.58275,-0.51325,-1.5608
1.23085,0.1546,-1.1023
0.9106,0.5891,-1.07
0.4838,0.9910667,-0.9950333
-0.0519,1.1783,-0.9436
-0.08515,0.94005,-0.90345
0.2524,0.33595,-0.5604
0.54555,-0.4735,-0.2261
0.45345,-1.16875,-0.242
0.1836,-1.4922,-0.19675
0.0282,-1.5442,-0.1205
0.0107,-1.1475667,0.0404667
0.15025,-0.36105,0.2047
0.21225,0.10035,0.23755
0.2498,0.1824,0.3332
0.2863,-0.1057,0.5207
0.28545,-0.58715,0.6066
0.21145,-0.8347,0.66375
0.1154,-0.8806,0.7587
0.0511333,-0.7345,0.7294333
0.1209,-0.5992,0.7713
0.19735,-0.6368,0.7679
0.274,-0.757,0.68195
0.38615,-0.7675,0.5016
0.4834667,-0.4882667,-0.0065333
0.4481,-0.08315,-0.247
-0.11835,0.3871,0.42615
-0.6031,0.4704,1.098
-1.29038,0.22954,1.34464
-0.9982,0.4956,0.8187
-0.0580333,0.5548,0.6834667
0.6204,0.2817,0.5608
1.0621667,0.3847667,0.0889
1.5493,0.7477,-0.2632
1.7008667,1.0204333,-0.4993333
1.5144,0.8397,-0.5098
1.298,0.4018,-0.2161
0.495275,-0.924125,0.577875
-0.5458,-1.5036,0.60255
-0.70895,-0.57285,-0.1345
-0.5845,0.5563,-1.4854
-0.373375,0.6399,-2.26805
-0.394,0.2644,-2.01525
-0.39695,0.3268,-1.4037
-0.2546,0.32255,-0.7098
-0.1722,0.3544,-0.3181
-0.1540667,0.1413,0.0159333
-0.12435,-0.3667,0.09725
-0.0532,-0.6345,-0.0603
-0.0859667,-0.9121333,-0.1019333
-0.1219,-1.1634,-0.0759
-0.0720333,-1.0557667,-0.1852333
-0.05665,-0.53755,-0.4394
-0.30705,-0.3947,-0.2745
-0.6188,-0.2885,0.2697
-0.92095,-0.5063,0.61255
-0.994,-0.72795,0.5038
-0.86935,-0.8042,0.38075
-0.7521,-0.7898,0.4528
-0.5966,-0.7539333,0.5071667
-0.2812,-0.69765,0.6525
-0.0867,-0.60085,0.66885
-0.1841,-0.468,0.71375
-0.57465,-0.44625,0.60015
-0.9442,-0.38865,0.1608
-0.9203,-0.272,-0.1081
-0.5998,-0.0315,-0.0331333
0.18755,0.2594,0.8276
0.9109333,0.3616,1.2275667
1.1304,-0.0136,0.5091
0.9693,-0.1219,0.2486
0.38165,0.31015,-0.195775
-0.35425,0.8899,-0.63915
-0.79095,1.2503,-0.9295
-0.71355,1.0692,-1.13415
-0.5192,0.602,-1.1804
-0.3775,0.2062,-1.0725
-0.035525,-0.524825,-0.8454
0.1815,-0.8018,-0.8871
0.2888,-0.83835,-0.99525
0.43855,-0.86955,-1.1355
0.7462,-0.6169,-1.18815
1.0817667,0.1401667,-0.7873333
1.0901,0.94665,-0.4927
0.7657,1.2238,-0.31585
0.4009,1.168,-0.2326
0.0915,0.9639,-0.2176
-0.0336,0.3641333,-0.3299667
0.01625,-0.3816,-0.23705
0.03065,-0.8553,-0.21645
0.077,-1.10955,-0.16435
0.336225,-1.100675,-0.1357
0.5622,-0.80105,0.05755
0.60565,-0.515,0.10015
0.6443,-0.3576,0.0852
0.60845,-0.23795,0.1067
1.0202333,1.3770667,-1.1845333
1.6165,0.3898,-0.6856
0.59325,0.00225,-0.2417
-0.1432,0.1077,0.1381
-0.5597,-0.7694,0.3201667
-0.6144,-1.70635,0.6347
-0.33535,-1.424,0.33285
0.0516,-0.17,-0.16375
0.4295,0.41345,-0.47295
0.5863,0.7349,-0.5471
0.5963333,0.4983,-0.4730333
0.30775,0.123,-0.31695
-0.0361,-0.173,-0.00615
-0.4289,-0.6894,0.37265
-0.5633,-1.014,0.4641
-0.6169333,-0.8706667,0.4679333
-0.44555,-0.02145,0.2035
-0.22295,0.44675,0.0634
0.01215,0.2498,0.03455
0.102,-0.2485,-0.00795
0.018,-0.5423,0.14505
-0.1705,-0.5786667,0.3046333
-0.327,-0.5544,0.3991
-0.31175,-0.4631,0.3763
-0.2441,-0.276,0.3151
-0.10165,-0.0389,0.1934
-0.10065,-0.00785,0.1472
-0.1149,-0.0863,0.1666
-0.1648,-0.1509,0.181
-0.1947,-0.213,0.2115
-0.1306,-0.228625,0.255375
-0.04955,-0.40035,0.27495
-0.0513,-0.3641,0.2732
-0.0191333,-0.4154333,0.1835
-0.0046,-0.4312,0.3441
-0.0525,-0.3137667,0.1322667
-0.2138,-0.16955,0.25575
-0.265,-0.13285,0.26605
-0.33855,-0.1572,0.25685
-0.40425,-0.19105,0.1146
-0.37,-0.15225,0.0475
-0.25775,-0.02805,-0.0068
-0.1843,-0.0405,0.04975
-0.1435,-0.25435,0.16085
-0.0904,-0.37765,0.192
-0.03685,-0.3235,0.14025
-0.0014,-0.1927,0.08135
0.01105,-0.18145,0.07575
0.01985,-0.2279,-0.0032
-0.021425,-0.195525,0.04265
-0.0106,-0.1991,0.0285
-0.01885,-0.2222,-0.01795
-0.062,-0.2057,-0.02335
-0.07615,-0.1923,-0.032325
-0.0866,-0.17305,-0.0381
-0.0703,-0.1636,-0.0353
-0.0559,-0.14385,-0.0151
-0.0761,-0.1537,0.0075
-0.0847,-0.2183,0.00205
-0.0826,-0.2878,0.0156
-0.0634333,-0.3132667,-0.0064
-0.06705,-0.28475,0.05595
-0.077,-0.224,0.00485
-0.100725,-0.201825,0.011825
-0.1341,-0.1644,0.12365
-0.1201,-0.16575,0.17525
-0.0938,-0.1278,0.1102
-0.0703333,-0.1114333,-0.1046667
-0.08455,-0.15855,-0.022
-0.0695333,-0.2396333,0.0398
0.0048,-0.2598,0.0323
0.0268,-0.2366,0.0115
0.0408333,-0.1857333,-0.0233667
0.03865,-0.15735,0.053
0.0041333,-0.1812,0.0279667
-0.0218,-0.2028,0.1002
-0.0353,-0.2025,0.1029
-0.0345,-0.203925,0.1056
-0.01205,-0.23185,0.05895
-0.00975,-0.19805,-0.02615
-0.0162,-0.19745,-0.0572
-0.0482,-0.21135,-0.0313
-0.0568,-0.2125,-0.0503
-0.0598,-0.2126333,-0.0845
-0.0533,-0.15415,-0.1363
-0.0535,-0.17865,-0.09815
-0.05035,-0.1887,-0.0506
-0.07715,-0.204175,0.026025
-0.06895,-0.2211,-0.00085
-0.06025,-0.19635,-0.0465
-0.0291,-0.188,-0.0931
-0.0564,-0.1714333,-0.0040667
-0.0901,-0.19865,0.09635
-0.118,-0.1911,0.1361
-0.1015333,-0.1965,0.0317333
-0.0643,-0.16,-0.0802
-0.0297333,-0.1184333,-0.0943667
-0.00365,-0.1122,-0.0434
0.0351,-0.1756,-0.04265
0.07125,-0.22815,-0.0468
0.0615,-0.2237,-0.0681
0.0475667,-0.1802,-0.1436
0.0009,-0.14,-0.13905
-0.0326,-0.15865,-0.0675
-0.0233,-0.18725,-0.07675
0.0354,-0.22,-0.0809
0.1391,-0.2612,-0.07955
0.2184,-0.2705,-0.0172
0.2727333,-0.3355,0.0694
0.2414,-0.27105,0.0442
0.1829,-0.1598,-0.0605
0.0938,-0.1432,-0.1347
-0.03865,-0.14845,-0.16465
-0.21695,-0.0703,-0.16525
-0.3184,-0.01385,-0.08865
-0.40645,-0.0101,0.04095
-0.3701,-0.0875,0.0676
-0.2393,-0.2073,0.1104
-0.067,-0.2224667,0.1242667
0.00155,-0.2131,0.22335
-0.002,-0.2441,0.0624
0.06765,-0.314725,-0.1031
0.29085,-0.31895,-0.17865
0.4896333,-0.2241,-0.0481
0.4814,-0.1682,0.0948
0.3779667,-0.1514667,0.0505667
0.1626,-0.18,-0.0267
-0.0277,-0.19895,-0.1696
-0.2631,-0.1518,-0.2314
-0.387,-0.1326,-0.1615
-0.4375,-0.134,-0.0567
-0.3204333,-0.0845667,0.0039333
-0.1797,-0.01985,0.05455
-0.0778,-0.0315,0.069
-0.03845,-0.02285,0.04315
-0.0367,0.0315,0.0098
-0.0647,0.04805,-0.0403
0.0017667,0.0513333,-0.0444333
-0.03635,0.09095,-0.1729
0.0322,0.20265,-0.2738
0.11235,0.014,-0.33105
-0.018025,-0.443575,-0.59745
-0.1572,-0.55255,-0.6173
-0.0592,-0.3533,0.0465
0.02595,-0.3336,-0.15345
-0.03135,-0.2148,-0.432
0.05465,-0.3921,0.50605
-0.0122,-0.77435,1.1854
-0.14415,-0.7621,0.8017
0.069775,0.074475,-0.140825
0.09445,0.3478,0.1787
-0.04505,-0.2908,0.2607
0.0097,-0.60745,-0.0043
0.04645,-0.49635,-0.1827
0.05675,-0.2355,-0.0585
0.05165,-0.0862,0.0288
0.0206,-0.03585,0.0389
-0.0507,-0.11385,0.0454
-0.103,-0.1847,0.0313
-0.11985,-0.1805,0.0963
-0.16535,-0.13015,0.0957
-0.1911,-0.0629,0.01665
-0.11705,-0.0667,-0.08545
0.0109,-0.12765,-0.0846
0.06905,-0.20185,-0.05175
0.0961,-0.2318,-0.10695
0.0415333,-0.191,-0.2110667
-0.024925,-0.1037,-0.1713
-0.0642,-0.1311,-0.037
-0.0743,-0.1602667,-0.0899
-0.03325,-0.2259,-0.0613
0.03195,-0.14845,-0.17945
0.06485,-0.0507,-0.04275
0.04535,-0.0856,0.0435
-0.02655,-0.17755,-0.05115
-0.04415,-0.1614,-0.19855
