accx,accy,accz
0.0701,-0.2196333,-0.0570333
0.2353,-0.22825,-0.12085
0.152025,-0.0609,-0.04525
-0.0923,-0.0951,-0.08305
-0.15975,-0.20745,-0.0393
0.023,-0.33075,0.2093
0.10225,-0.2674,0.0541
0.11385,-0.0022,0.0585
-0.08165,0.07475,-0.1554
-0.1368,-0.14575,-0.15375
-0.0242,-0.45545,0.0622
0.08405,-0.56355,0.068
0.09845,-0.32605,-0.1303
-0.01895,-0.0425,-0.13175
-0.0806333,0.0014333,-0.0007333
-0.0178,-0.0625,-0.0231
0.0425667,-0.1119667,-0.0097667
-0.0286,-0.19605,0.0072
-0.0856,-0.1446,-0.12665
-0.06895,-0.13075,-0.1904
-0.0734,-0.1674,-0.13
-0.0634667,-0.3086333,-0.1936
0.0211,-0.45295,-0.20775
0.01485,-0.36385,-0.1135
-0.10815,-0.09935,-0.1489
-0.2241,-0.1525,-0.1954
-0.4035,-0.3561333,0.0052667
-0.49235,-0.49655,0.13745
-0.4111,-0.40245,0.19775
-0.24645,-0.06745,0.0545
0.1153,0.2265,0.55435
0.24965,0.0371,0.6638
0.24305,-0.44885,0.7029
0.019,-0.724,0.4925
-0.1647,-0.4991,0.10815
-0.0966,-0.28765,0.0451
0.07525,-0.47745,0.2922
0.12905,-0.77775,0.46545
0.02275,-0.83345,0.37395
-0.0463,-0.2853,0.1082
0.078,0.0232,0.21345
0.2178,-0.3306,0.67455
0.03455,-0.89575,1.0264
-0.34385,-1.04965,0.9776
-0.5189,-0.70085,0.67635
-0.3786,-0.4744,0.543
-0.0019667,-0.4284667,0.5950667
0.232,-0.3772,0.65485
0.07,-0.38755,0.6854
-0.1946,-0.5073,0.68265
-0.3755,-0.4977,0.4013
-0.3783,-0.2540333,0.1616667
-0.36575,0.3596,-0.11895
-0.41885,0.6988,0.57615
-0.49945,0.78645,0.8938
-0.8004,0.7534,1.1547
-0.9971,0.57485,1.38795
-0.67425,0.221,1.0693
0.02855,-0.273,0.90755
0.34835,-0.4225,0.94815
0.0064,-0.54695,0.5454
-0.4203,-0.7702,0.1915
-0.6639667,-0.7535333,0.0272333
-0.23235,-0.18915,-0.0023
0.072,0.29865,-0.49355
0.27995,0.3915,-1.43645
0.712,0.4911,-1.5383
0.94835,-0.16145,-0.97735
0.4924,-0.8395333,-0.6466333
0.39395,-0.60805,-0.6999
0.7325,-0.3379,-0.6929
0.9504,0.01895,-0.62305
0.8522333,0.5002667,-0.4300667
0.2235,0.51135,-0.3155
-0.32395,0.17455,-0.20405
-0.4863,-0.2211,-0.2945
-0.4138,-0.75695,0.00945
0.2056,-1.2826,0.0936
1.27435,-0.87475,-0.2373
1.64175,-0.5118,-0.8834
1.1659,-0.3934,-0.9397
0.1062333,-0.6762333,-0.0014333
-0.74335,-1.12915,0.8593
-0.80625,-1.2002,0.7337
-0.36835,-1.09185,0.39335
-0.0407,-0.72185,-0.05155
0.0228,-0.4106,-0.1758
-0.1028,-0.5417333,0.3207333
-0.4205,-1.0629,0.9576
-0.3601,-1.22505,0.58945
0.08145,-0.91005,0.1893
0.54375,-0.3039,0.31195
0.73715,0.4132,0.7304
0.7771,0.3333,1.5998
0.6398,-0.0836,2.32365
-0.2352,0.9585,1.585
-0.141275,3.337475,-0.842125
-0.28755,4.5451,-1.1356
-0.797,1.95045,-1.07555
-0.58035,-0.6934,-1.2729
-0.5652,-1.661,-1.456
0.0307667,-2.0958667,-1.7005667
1.17815,-0.42395,-1.7863
0.9226,1.2148,-1.27015
-0.2314,1.6185,-1.1014
-0.8261,0.9495,-1.3587
-0.6024667,-0.3071333,-1.1376333
0.21555,-1.1165,-0.53585
0.535,-1.2193,-0.04295
0.3228,-1.12175,-0.3472
-0.146625,-0.914125,-0.403025
-0.5493,-0.8673,0.1282
-0.7239,-1.04695,0.29405
-0.84165,-1.3411,0.332
-0.7641,-1.6089,0.5362
-0.4818333,-1.6439333,0.7022667
0.07955,-1.40225,0.77295
0.40895,-1.2462,0.71095
0.43055,-1.17515,0.56725
0.144625,-0.72285,0.5779
-0.4214333,0.2326,0.0850333
-0.8889,0.9656,0.0368
-0.97985,1.3428,1.30285
-0.75415,1.64485,2.53115
-0.0991,2.57715,1.99655
0.7354,3.41875,1.05285
0.869,3.0483,0.03825
-0.03325,1.63755,-0.8468
-0.848825,-0.655575,-1.3136
0.14305,-1.5794,-2.18835
1.6208,-0.6755,-1.52195
2.1586,0.0553,-1.1642
1.7748,0.2312,-1.2331
0.205925,-0.016275,-1.42255
-0.5619,-0.6712,-1.02405
-0.6191,-0.68895,-0.8767
-0.1206,-0.76135,-0.49125
0.4183,-0.9093,-0.3115
0.8853,-1.27294,-0.35146
0.3834,-1.2391,-0.1599
-0.2375667,-1.0434333,0.0117667
-0.561,-0.9805,0.164
-0.11616,-1.11466,-0.0441
0.5361,-1.6169,0.21975
0.30595,-1.68705,0.59325
-0.0954,-1.59845,0.6891
-0.03286,-0.7579,0.22214
1.0501333,1.4507,0.3761
0.91155,1.92555,1.3981
0.206825,0.793775,3.10085
-0.61355,2.9186,1.7395
-0.4863,4.23735,-0.88175
0.4695,3.10255,-1.86845
1.0034,1.4845,-1.642
0.1464,-0.2230333,-1.5252667
-0.8278,-1.5377,-2.1868
-0.7133,-1.42555,-1.90675
-0.41715,-0.80355,-1.1014
-0.109,-0.3002,-0.5653
0.05805,0.185925,-0.502675
0.0445,0.2792,-0.8563
0.0584,-0.3040667,-0.6421667
0.0604,-1.4637,-0.08965
-0.5110333,-1.9520667,0.1089
-1.0272333,-1.5370667,-0.0744333
-0.98345,-1.24155,0.1217
-0.62875,-1.3201,0.569225
-0.53945,-2.047,0.70305
-0.4982,-2.5076,0.37905
0.1482,-2.16455,0.31995
0.7806333,-0.8847,0.4632333
-0.3404333,-0.0824667,1.2645333
-1.98195,-0.08405,1.72875
-1.8392,0.67635,1.87885
-1.2328,1.2541,1.5117
-0.7943667,1.7787,1.5248333
-0.057,1.23815,2.31085
1.6847,0.38165,1.73015
1.8412,2.38145,-0.57605
-0.0181,3.6678,-2.54755
-2.157,3.1248,-3.0314
-2.4197,1.3532,-2.3569333
-0.55835,0.4596,-0.61115
0.85595,0.24885,-0.81355
0.8123,-0.30545,-1.256
-0.035,-0.78325,-1.14845
-0.8609,-0.7858,-0.7773
-1.6031,-0.6394,-0.63995
-1.6323,-0.85605,-1.20695
-1.0968,-1.1541,-1.5129
0.3700667,-1.2245667,-1.0544333
1.81555,-1.1449,-0.1567
1.9304,-1.1974,0.0875
0.9304667,-1.3167333,-0.2426333
-0.1867,-1.336,-0.5639
-0.6970667,-1.4415667,-0.5322667
-0.2434,-1.7195,0.1979
0.36425,-1.6791,0.56425
0.3222,-1.44635,0.39025
0.0286,-1.0802,0.6248
-0.5679,-0.237,0.5595667
-0.5564,0.63915,0.60995
-0.05865,1.1618,0.69705
0.54845,1.16345,0.5404
0.54315,0.8163,1.16535
0.314,0.431,2.2729
-0.147675,0.783725,2.486275
-1.04475,3.07615,-0.35225
-0.701,2.8392,-2.1552
-0.11485,2.94115,-2.9866
-0.15,1.8597,-2.7472
-0.207075,-0.83825,-1.30725
-0.7222,-1.464,-0.4456
-1.0391667,-0.6427,-0.8429
-0.5197,0.21075,-1.08555
0.5138,-0.1239,-0.993225
1.03625,-1.1702,-0.3108
0.42135,-1.8641,0.19975
-0.2959,-1.9739,0.3704
-0.7707333,-1.8162,0.4517333
-0.7716,-1.4739,0.11395
-0.13485,-1.08225,0.14015
0.5592,-1.0142,0.2299
0.8551,-1.2259,0.2188
0.78475,-1.43585,0.06795
0.1466667,-1.9599667,0.5187333
-0.74155,-2.06275,0.8554
-1.2858,-1.4408,0.8729
-1.35025,-0.79515,0.8392
-1.1677,-0.3008,1.1591
-0.6284,0.3218,1.4071
-0.0469,1.2018,1.50185
0.2559,1.5591,1.6186
0.52835,1.3107,2.7256
0.8948,0.6875,2.8897
1.014,1.87185,1.89045
-0.253,3.8707,-1.3033667
-1.65975,2.3444,-2.1348
-0.7197,0.6662,-2.02865
0.3525,0.0271,-1.767
1.0085333,0.1970667,-0.6790333
0.3102,0.3972,-0.7025
-0.9515,-0.0413,-0.74775
-0.70205,-0.211,-0.74125
-0.0666,-0.33635,-0.91245
0.26125,-0.906,-0.78905
0.425,-1.72695,-1.2034
0.6773,-1.9718,-0.6985
0.86595,-1.98185,-0.1369
0.507925,-1.5784,0.0806
0.00855,-1.38635,-0.04835
0.01905,-1.87475,0.3306
0.3847,-2.2765,0.7669
0.7197,-2.3298,0.94
0.7317,-2.1721667,1.1741667
-0.1779667,-1.1587333,0.7262667
-0.841,-0.2023,0.0466
-0.78915,0.25555,-0.22715
-0.1162,0.83235,-0.05575
1.1666,1.1413667,0.9850333
1.515,1.1856,2.6261
1.2059,0.8443,3.3379
0.1626,0.6172667,3.1279667
-0.7049,1.8055,1.9496
-0.2510333,2.9938,-0.6250333
0.7011,2.9949,-1.87865
0.83225,1.0361,-2.791
-0.19645,-0.90955,-1.90535
-1.4017,-1.574075,-0.4092
-1.4146,-0.0171,-0.5143
-0.1344333,0.9327,-0.44
0.7986,0.94595,-0.78205
0.674225,-0.7352,-0.61905
0.7769,-2.54325,0.5753
0.15755,-2.777,0.67305
-0.41035,-2.30285,0.2683
-0.689875,-1.1187,0.0484
-0.2523,-0.71005,0.41155
-0.2149,-1.09935,0.8751
-0.53125,-1.77555,0.95525
-0.7347,-2.2327,1.27585
-0.44485,-2.12235,1.3836
-0.09365,-1.61325,1.1002
0.0173,-0.79105,0.91295
-0.27805,0.7379,0.8576
-1.08425,2.14745,0.9162
-1.71155,2.24275,1.06985
-1.57355,1.3343,2.5876
-0.2639,0.3212,3.25205
1.9211,0.61435,1.74135
2.5615,2.69795,-0.737
0.7425,3.41835,-3.4507
-1.0244,1.8304,-3.59775
-0.3157,0.2475,-1.61665
1.28145,-0.9107,0.29875
1.9171,-1.0214,0.6569
1.1960333,0.1558667,-0.7218333
-0.3079,1.02155,-1.33975
-1.35965,0.7551,-0.4782
-1.61005,-0.0778,0.25715
-1.267,-1.2163,0.3159
-0.272275,-2.800625,-0.179975
1.05355,-2.65025,-0.28215
1.7303,-1.6653,-0.01635
1.7038,-1.0807,0.1639
1.3498,-0.9903,0.2765
0.277675,-1.241375,0.058925
0.17635,-1.90755,0.22355
0.7676,-2.1614,0.7782
1.0686,-2.1382,1.2341
0.9148,-1.92705,1.3583
0.3897,-1.4971,1.222
-0.3837667,-0.7754333,0.9335667
-0.8154667,0.3348667,-0.0988333
-0.0575,1.2076,0.1343
1.3686667,1.6617667,0.7417
1.465825,0.394875,3.9932
-1.3547,1.12115,2.67975
-1.9004,3.2902,-1.2089
-1.1144,4.0329,-3.918
0.4212667,3.1757667,-3.6921333
1.78885,-0.4894,-1.47535
1.3057,-2.1149,-0.4471
0.4083,-2.85185,-0.20055
-0.0829,-2.4171,-0.3717
-0.5263667,-0.8023,-0.6349
-0.58185,1.36635,-0.14515
-0.5673,2.0295,-0.5668
0.18065,0.9969,-0.2656
1.0791,-0.6694,0.4049
1.0078,-2.3138333,0.9262
0.00955,-2.65955,0.63685
-0.70845,-2.0523,0.1693
-0.83205,-1.63035,0.2432
-0.32505,-1.35755,0.52625
0.1118,-1.4092,0.5076
0.4875667,-1.8819333,0.6054667
0.56345,-2.3426,0.3603
0.47185,-2.14645,0.98915
0.2036,-2.04045,1.4369
-0.2326,-1.8519,1.4018
-1.1869333,-0.3461333,0.6846333
-1.28675,1.6747,0.8791
-0.8807,2.5518,1.82555
-0.45445,2.6328,3.114
0.8275,3.1631,2.81885
2.15025,4.2047,0.61355
1.8795,4.2339,-2.4313
-0.4295,2.4772,-3.87855
-1.49945,0.19745,-2.3279
-0.9796,-0.5685,-0.5112
0.3355333,-0.4629,-0.4101
0.90045,-0.31935,-1.2414
0.4688333,0.0136667,-1.0014
-0.1067,-0.0014,-0.4305
-0.3465,-0.2121,-0.2933
-0.3762,-0.6862,-0.32565
0.0164,-1.4702,-0.4484
0.5448,-1.8956,-0.30045
1.15885,-1.8701,-0.0823
1.40615,-1.6129,0.011
1.042,-1.5319,0.4917
0.2783333,-1.7172667,0.3834667
0.0647,-1.99875,0.55175
0.3129,-2.15885,0.52665
0.6862,-2.2131,0.6735
1.0078,-2.0336667,0.8948667
0.9285,-1.6786,1.0166
0.6465,-0.99405,0.6089
0.5313,-0.01765,0.3484
0.351475,1.5055,0.876175
0.3953,1.8074,2.38175
0.38805,1.8867,3.6861
-0.308,3.3425,2.8011
-1.20575,4.17175,-0.4312
-0.25,2.521,-1.9254
1.31405,0.04085,-1.0232
0.8337,-1.3918,-1.27085
-0.1329,-2.00665,-2.08945
-0.5058,-1.2903,-1.9157
-0.9540667,0.3390667,-1.0276333
-0.78305,0.9373,-0.3869
0.1352,0.3265,-0.29925
0.54235,-0.5673,-0.259
0.33,-1.49445,-0.1479
-0.125,-2.222,0.2052
-0.37275,-2.52105,0.4027
-0.3574,-2.3796,0.8284
-0.1519333,-1.9462333,0.3537667
0.2209,-1.637,0.373
0.1025,-1.63855,0.67495
-0.37655,-1.8438,0.84325
-0.63745,-1.9925,1.06175
-0.464,-2.1011,1.7165
-0.1624,-2.0601,2.269
0.111,-1.7052,2.1113
0.18175,-0.9363,1.35335
-0.3073,0.2532,0.32765
-1.04885,1.84115,-0.01835
-1.4142,2.5371,0.1922
-0.9905333,2.6014667,2.1259667
0.00065,2.6356,3.46405
0.6866,3.7091333,0.2458
0.5815,4.4376,-2.6009
0.0642,3.4623,-3.2459
-0.810925,0.058775,-1.8637
-0.4139,-1.5842,-0.36915
0.7748,-0.4734,-1.48595
1.0811,-0.0626,-1.6375
0.6775,0.2992,-1.3219
0.15655,0.041925,-0.643475
-0.2273,-0.5353,0.0667
-0.4202,-0.7122,0.2909
-0.388,-1.5839,-0.1600333
0.4887667,-2.4770333,-0.0256
1.2464,-2.3151,0.3298
1.0568,-1.9725667,0.4013667
0.3822,-1.5037,0.63015
0.1181,-1.30205,0.65415
0.207,-1.47245,0.41675
0.46015,-1.89785,0.69685
0.7677,-2.1979,1.1717
0.8587,-2.2145,1.3982
0.623,-1.9811,1.30975
0.3156,-1.4169,1.0718
0.0425,-0.1755,0.5211667
-0.01145,1.4244,0.0246
0.4337,1.8669,0.3153
0.53545,1.3397,1.83545
0.4783,0.7348,3.7108
-0.81092,2.29322,2.66852
-1.44175,5.72145,-3.14415
-0.19895,3.97985,-4.4127
0.2836,1.0773,-3.7193
0.74492,-2.0287,-0.66826
1.29185,-1.945,-0.7815
0.5277,-0.58385,-1.5228
-0.0626,0.31325,-0.99915
-0.1716,0.6273,-0.8275
0.09178,-0.36646,-0.38956
-0.3589,-1.7172,0.1762
-0.90355,-1.57585,0.15975
-0.8835,-1.2281,-0.1485
-0.02974,-0.79624,-0.24464
0.2099,-1.2718,0.08495
-0.13785,-1.66285,0.18105
-0.256525,-2.08975,0.721675
0.1522,-1.1950333,0.4416333
0.37755,-0.18485,0.6186
0.1562,0.4547,0.8037
-0.1888,0.7914,0.7929
-0.3266333,0.6308167,1.4276
0.65425,1.0565,1.0377
0.3783,2.9349,0.2375
-0.7146,4.0462,-0.5951
-1.65825,3.1574,-1.2088
-1.2051,0.67375,-1.18355
0.5268667,-1.6477333,-0.5703667
1.6513,-1.6339,-0.6537
1.2091333,-0.1831333,-0.9521667
-0.38285,0.3526,-0.5768
-1.5775,0.4203,-0.56715
-1.5273,0.27425,-0.6026
-0.2655,-0.8574,-0.18985
0.3936,-1.3479,-0.3076
1.0145333,-1.6499,-0.5353
1.37285,-1.3312,0.08585
0.6832,-0.86185,0.06925
-0.11405,-0.6357,-0.14965
-0.1512,-0.82995,0.0048
0.4756,-1.343,0.3198
0.848,-1.5998,0.43445
0.6045,-1.4144,0.44165
0.0279,-1.0281,0.4818
-0.127025,-0.9771,0.7009
0.21855,-0.626,0.79165
0.2156,-0.2965,0.57135
0.0813,0.0448,0.2663
0.064675,0.64645,0.951075
-0.23165,0.44965,2.0087
-1.1729,0.0782,2.31595
-2.01775,0.8259,1.4625
-0.899325,3.295125,-1.39435
1.40935,2.03645,-2.22795
1.3569,-0.63065,-1.51135
0.91815,-2.283,-0.3365
0.49495,-2.5947,-0.1522
0.1464,-1.5395,-0.616
-0.2983333,0.1644333,-0.9311
-0.5593,1.39535,-0.57225
-0.61165,1.19845,-0.43265
-0.02485,0.25675,-0.2204
0.7859,-0.69905,0.19825
1.05935,-1.4861,0.4519
0.4078,-1.7394,0.3541
-0.374,-1.2234667,0.1262
-0.265925,-0.801025,0.608625
-0.1127,-1.0598,0.65
-0.25175,-1.21485,0.38325
-0.4827,-1.3822333,0.4455667
-0.6705,-1.44,0.4065
-0.6216,-1.3215,0.6353
-0.497775,-0.9584,0.89005
-0.4089,-0.57875,0.6229
-0.14865,-0.18225,0.24565
0.0835,-0.1506,0.1573
0.2652,-0.18275,0.62975
-0.3599,-0.1141333,1.4722
-1.28055,0.1409,1.4402
-0.82785,0.90945,1.14535
0.69505,3.09205,0.9495
1.4278,4.2791,0.4787
0.89215,3.3512,-0.4999
0.0420667,0.5231,-0.9781333
0.40355,-1.13965,-0.9415
0.88125,-1.56195,-0.8621
0.9573,-1.0924,-1.2303
0.42702,-0.333,-1.30884
0.0873,0.72175,-0.27515
0.1701,0.8604,0.108
0.23222,0.31078,-0.43022
0.4823,-1.23235,0.12095
0.78715,-1.81385,0.38105
0.90735,-1.5955,0.2689
0.58495,-1.15465,-0.0123
0.0615,-0.73045,0.1147
-0.12,-0.6947,0.0316
0.213,-0.85265,0.5703
0.4707,-1.0396,0.7195
0.6374333,-1.1765,0.4154667
0.69135,-1.1439,0.28735
0.5305,-1.16145,0.49525
0.29655,-1.12385,0.70875
0.15445,-1.00615,0.7846
0.12495,-0.77185,0.6388
0.2835,-0.4771,0.3052
0.4242,-0.24035,0.3903
0.4379,0.06555,0.70565
0.28565,0.45875,1.13125
-0.13395,1.41935,1.4603
-0.62315,4.0585,0.4483
-1.17795,5.01535,-1.86275
-0.7764333,1.8694,-1.4455667
-0.4381,-0.5051,-0.0486
-0.2279,-1.9513,-0.0063
0.4724,-2.92635,-1.05515
1.5226333,-1.5695667,-1.4167667
0.7482,0.1699,-0.7623
-0.4741,0.7007,-0.3818
-1.31255,0.8636,-0.6239
-1.0772667,0.3484,-0.5901
0.3251,-0.725,-0.23825
1.1243,-1.2007,0.1615
1.0398,-1.1829,0.1548
0.44665,-0.79875,0.1066
-0.3563667,-0.3484333,-0.0220667
-0.6991,-0.2672,0.11205
-0.64205,-0.5886,0.28545
-0.6255,-1.04345,0.2016
-0.76,-1.25195,0.17245
-0.566375,-1.1588,0.3364
-0.1835,-0.7246,0.62915
0.00825,-0.47375,0.54175
0.0545,-0.43985,0.4008
-0.07425,-0.66765,0.546475
-0.3718,-0.8299,0.54165
-0.18365,-0.5594,0.562
0.2581,0.27475,0.6287
0.1986,0.81695,1.11055
0.1039,0.80035,1.60065
0.46165,2.22585,1.1487
0.4379,3.4283,-0.0769
-0.2303,2.7496667,-1.9299
-0.37125,0.4296,-1.53405
-0.4633,-1.1127,-0.87685
-0.1865,-1.956,-0.8638
0.46185,-1.43575,-0.74785
1.10445,-0.1248,-0.8093
0.94275,0.97655,-0.64865
-0.0044,1.243,-0.5462
-0.958,0.9302,-0.73085
-1.08995,0.12725,-0.5226
-0.3735,-0.93965,-0.34965
0.4936,-1.674,-0.3958
1.4178667,-1.6405333,-0.1459333
1.1899,-1.0648,0.02315
0.2135,-0.54865,-0.0979
-0.3266,-0.30445,-0.11445
-0.4266,-0.334,-0.1953
0.29635,-1.051375,-0.08085
1.0687,-1.5079,0.1348
0.8606333,-1.0961,0.2972
0.1162,-0.4253,0.45935
-0.4443,-0.346475,0.4125
-0.0201,-0.7123,0.36
0.3518333,-0.8365333,0.1357333
0.576925,-0.52235,0.07915
0.3626,-0.20265,1.1126
0.0552,-0.08425,1.31245
-0.30565,0.76185,1.26335
-0.623425,2.59975,-0.375075
0.28325,2.0252,-1.33985
0.30815,0.5368,-0.7892
-0.1485,-0.5093,-0.4804
-0.3953,-0.8562,-0.6398
-0.727675,-0.659375,-1.826325
0.1084,-0.07295,-1.6186
0.559,0.2078,-0.80545
0.3127,0.1763,-0.328
-0.19405,-0.0744,-0.66285
-0.66305,-0.2077,-0.8767
-0.7013,-0.1046,-0.48785
-0.3886,0.1717,0.14625
-0.1092,0.1749,0.14325
0.14435,-0.24845,-0.3268
0.3045,-0.874825,-0.06935
0.11725,-1.1287,0.62555
-0.1219,-1.1905,0.7375
-0.21775,-1.092,0.47375
-0.1870667,-0.8762667,0.2382667
-0.23465,-0.8775,0.2468
-0.2873,-0.82645,0.84805
-0.2803,-0.66085,0.9024
-0.2216,-0.5455,0.8834
-0.1284667,-0.4875333,0.8686667
-0.10325,-0.60305,0.57365
-0.20305,-0.8306,0.54025
-0.2937,-0.94915,0.67285
-0.3519,-0.7988,0.7593
-0.4435667,-0.4949667,0.7745333
-0.5416,-0.33,0.8987
-0.25265,-0.4561,1.1427
0.3939,-0.56415,1.3979
1.3634,0.12785,0.9728
1.6197,1.4081,0.2523
0.4596,2.4605,-0.755925
-1.7493,3.0397,-0.7734
-2.2663,2.70235,-0.9426
-0.7293333,1.0053667,-0.6799667
1.103075,-1.859175,-1.10905
1.4378,-3.0082,-1.4755
0.9599333,-1.723,-1.1218667
0.2193,0.4117,-0.60455
-0.4194667,1.2234667,-0.4551667
0.0917667,0.8229667,-0.7293667
0.99895,-0.23335,-0.2563
1.3663,-0.9363,-0.0264
1.32005,-1.342,0.1706
0.58455,-1.4089,0.25765
-0.3069333,-0.9328667,0.1987
-0.41475,-0.4403,0.1457
0.0466,-0.5171,0.0132
0.555,-0.7978,-0.0636
1.1097333,-1.1982667,0.0572667
1.0337,-1.4079,0.2557
0.2991,-1.1945,0.41885
-0.21,-0.833,0.5068
-0.5758333,-0.5271667,0.4917667
-0.3167,-0.5013,0.58935
0.1503,-0.3338,0.3276
0.46585,-0.10745,-0.08395
0.55865,-0.0226,-0.15575
0.3029,-0.1009,0.2633
-0.1486,-0.3037333,1.2450333
-0.8515,-0.0705,2.0607
-1.10925,2.15725,1.04045
-0.91765,4.0682,-1.03305
0.4986,3.6043,-2.0123
0.92765,1.90375,-1.6368
0.03695,-0.2877,-1.4604
-0.22665,-2.0336,-1.0116
-0.02355,-2.8415,-0.82675
0.508,-1.6273,-1.2945
0.33085,0.29195,-1.3979
-0.10695,1.46815,-1.3161
-0.0831,1.56065,-1.33735
0.312,0.675,-1.16595
0.42545,-0.5585,-0.52545
0.14885,-1.35645,0.2289
-0.4035,-1.5851,0.49645
-0.64275,-1.37125,0.1929
-0.16765,-0.7664,-0.095
0.36355,-0.35205,-0.113
0.46515,-0.43165,0.02475
-0.0448,-0.8779,0.0581667
-0.7038,-1.1794,0.3644
-0.7795,-1.2494,0.5398
-0.5948,-1.317,0.6568
-0.4117,-1.19585,0.88005
-0.2986,-0.9356,1.0601
-0.2896,-0.3579667,0.7781667
-0.2533333,0.0953667,-0.1538667
-0.0997,-0.2341,-0.2458
0.1216,-0.519,-0.02105
0.43435,-0.59105,0.46045
0.5539333,-0.4468,0.9870333
0.731,0.051,1.2508
0.6965,3.45595,0.151725
-0.92895,3.75275,-1.79345
-1.74915,1.5605,-1.8167
-1.4429,-0.0994,-1.46925
-0.1958,-2.25,-0.674625
0.6393,-2.6783,-0.8928
1.2725,-1.25005,-0.96305
1.38445,0.9139,-1.0977
0.0481,2.1790333,-0.9469667
-1.21065,0.72945,-0.9767
0.4185,-1.38685,-0.1709
1.38155,-1.96225,0.0785
1.38635,-1.7152,-0.2003
0.35015,-1.13535,-0.47345
-0.66,-0.7199,-0.29545
-0.9947,-0.46785,-0.0079
-0.2662,-0.56265,0.15715
0.82605,-0.9198,0.05185
1.7713,-1.39875,-0.06795
1.78045,-1.4573,-0.01425
0.75875,-1.0812,0.414
-0.2755,-0.60755,0.33445
-0.6635,-0.4288,0.4714
-0.5478667,-0.6439,0.6632667
-0.08685,-0.6488,0.26585
0.0635,-0.674,0.28185
0.22405,-0.8918,0.02015
0.1166,-0.9063,0.2532
-0.2500333,-0.5506,1.2766667
-0.7375,1.3684,1.9529
-0.79205,3.9303,0.17145
-0.2924,5.28095,-1.72395
0.5362,4.809,-2.4486
0.191275,1.562025,-1.586275
-0.4801,-1.5478,-0.4739
-0.2998333,-3.1458333,-1.2847333
0.341,-2.8523,-2.239
0.8318,-1.6105,-2.3829
0.9274,0.5969667,-1.8218667
0.2928667,2.0193667,-0.8746667
0.12055,0.8553,-0.8039
0.069,-0.3927,-0.6567
-0.0174,-1.2738667,-0.0293333
-0.2488,-1.5592,0.3384
-0.3038333,-1.348,0.106
0.1593,-0.7676,0.01315
0.2752,-0.5257,-0.07705
-0.0444,-0.5671,0.08905
-0.74535,-0.85755,0.404175
-0.7812,-1.17985,0.52115
-0.2999,-1.3666,0.4926
0.0424,-1.3592,0.5241
0.2814,-1.2655,0.5978
-0.0527,-0.942,0.60115
-0.82285,-0.43275,0.21655
-1.2121,0.0182,-0.16595
-0.9447,0.2143,-0.295
-0.1401333,0.2739333,0.1884333
0.7201,0.0501,1.0902
1.28705,0.0687,1.6153
2.0935,0.93855,1.37095
1.0579667,3.4699667,0.1944333
-1.2421,4.7029,-0.9872
-2.2012333,3.0313667,-1.8199
-0.7844,0.82715,-2.1532
0.7372,-1.10395,-1.42415
1.4774,-2.7441,-1.06915
1.5911,-3.1229,-1.2025
1.2898667,-1.6531333,-1.2206333
0.3093,0.50245,-0.91395
-0.7049,1.3881,-1.08065
-0.9434,1.0552,-1.5826
-0.5344,0.2453,-1.1453
0.4397333,-1.0281333,-0.4245667
1.4958,-1.7032,-0.01895
1.44425,-1.4346,0.16685
0.8875,-1.0325,0.1575
0.1895,-0.7249333,-0.1272333
0.09265,-0.55005,-0.1069
0.55815,-0.6245,0.03935
1.2176,-1.0183,0.2655
1.4579,-1.60295,0.4579
1.1603,-1.6781,0.4214
0.12368,-0.91916,0.31232
-0.4285333,-0.2343,0.3390667
0.2067,-0.2039,0.4323
0.70485,0.23765,0.2853
0.4923333,0.7414667,0.79
-0.1144,1.4402,1.8888
-0.4856,3.30185,1.3635
-0.7831,3.9679,-0.1882
0.01715,1.974425,-1.8536
0.41295,-0.9833,-1.4827
0.0580667,-2.5626333,-1.3659667
-0.2358,-2.4314,-1.6722
-0.3981,-0.26925,-1.85945
-0.3865333,1.2224333,-0.8155333
-0.0721,0.7204,-0.7154
0.3323667,-0.3063333,-0.827
0.74715,-1.23245,-0.49195
0.44195,-1.255,0.2219
-0.14735,-1.0533,0.7497
-0.4023,-0.8123,0.45585
-0.07265,-0.39735,0.03755
-0.0102,-0.55885,0.36375
-0.37655,-1.09085,0.6429
-0.6644,-1.5619,0.674
-0.5895,-1.7443,0.6691
-0.0922,-1.588,0.8064
0.4168,-1.3365,0.9525
0.5735333,-1.175,1.0042667
0.0723,-0.8328,0.92665
-0.70415,-0.4673,0.70575
-0.9911,-0.00595,0.5746
-0.26625,0.34845,0.7273
0.50735,0.4483,0.89825
0.783,1.20105,0.9705
0.45845,3.27105,0.8421
-0.23155,4.3364,-0.53785
-0.58135,2.9363,-1.49585
-0.4985,0.6607,-2.0928
-0.3745,-0.84905,-1.5852
0.3342,-1.8506,-1.034
0.56845,-1.89535,-0.7078
0.29725,-0.9489,-0.80695
-0.1014,0.1022,-0.909
-0.4831,0.7429,-0.9291
-0.9153,1.06495,-1.11795
-0.93845,0.67815,-1.04765
-0.2409,-0.2091,-0.3552
0.9164333,-1.1860333,0.1189667
1.3674,-1.4593,0.1362
1.2748,-1.4812,0.0248
0.6849333,-1.2895333,-0.1457333
0.18915,-0.7895,0.0557
0.2022,-0.52005,0.3863
0.6093,-0.84965,0.3512
1.2650667,-1.5581,0.1368
1.3503,-1.8671,0.2825
0.9932,-1.76835,0.5327
0.2104333,-0.9730333,0.3701
-0.133,0.0275,-0.0391
-0.0928667,0.4892,0.0952
0.3378,0.3293,0.09605
0.8503,0.0069,0.70745
0.8393,-0.08155,1.2858
0.1829,0.5038,1.83645
-0.5552,2.1821,1.7084
-1.5235,4.2706667,-0.2614333
-1.5598,3.54245,-2.28725
-0.4496,0.9865,-2.0267
-0.05615,-1.2018,-1.2304
0.4687,-2.26265,-1.3807
1.2287,-1.54275,-2.2268
1.0627,-0.18085,-1.55445
-0.2319,0.46455,-0.9312
-0.9891,0.4981,-0.84015
-0.61565,0.3626,-0.95505
0.238,-0.04765,-0.76355
0.519,-0.5129,-0.3951
0.2562333,-0.9188,-0.0411333
-0.5887,-0.8753,0.17225
-0.9315,-0.8765,0.2265
-0.7576,-0.8194333,0.2501667
-0.02925,-0.87055,0.23825
0.13785,-1.02755,0.054
-0.06505,-1.059,0.2291
-0.4036,-1.1395,0.4495
-0.3791,-1.2365,0.3829
-0.1841667,-1.1890667,0.5530667
-0.12975,-0.79895,0.57785
-0.30605,-0.55675,0.433
-0.3716,-0.4201,0.28155
-0.1862,-0.385,0.2298
0.2115,-0.2628,0.4663333
0.3015,-0.21795,0.9054
-0.0855,-0.2646,0.92955
-0.2556,-0.3035,0.6395
0.2445333,-0.1416667,0.5883
1.71255,0.1757,0.8768
2.63235,1.3108,0.7718
2.1933,2.9217,0.1217
0.1060333,3.5113,-1.7191667
-2.2322,2.2934,-2.98015
-1.62535,0.3297,-2.0459
0.2112667,-2.2122667,-0.7666
0.5488,-2.6052,-0.89125
0.160375,0.043075,-0.972425
-0.8351,2.1281,-1.1846
-0.94755,2.11345,-1.28305
-0.2579,0.31875,-0.8925
0.3711,-1.1857,-0.7132
0.7916,-1.9388,-0.37125
0.7898667,-1.7862333,-0.0892
0.0529,-0.82575,-0.1839
-0.50075,-0.3853,-0.3789
-0.46155,-0.1675,-0.49735
-0.0421,-0.0988,-0.4397
0.7186,-0.4247,-0.309
1.1371,-0.7759,-0.2769
0.6731333,-0.7436333,-0.4463333
-0.1313,-0.25095,-0.38235
-0.3665,-0.0689,-0.18375
-0.01535,-0.2212,-0.195
0.4014,-0.2892,-0.38105
0.52115,-0.22065,-0.37225
0.4005,-0.3087,-0.1368
-0.0507667,-0.2181333,0.3252
-0.7993,0.969,0.60395
-1.2355,2.14625,-0.3496
-1.12385,1.9296,-1.17345
-0.20765,0.72935,-0.6484
0.41045,-0.1986,0.2702
0.51395,-0.76895,0.11975
0.3002,-0.73165,-0.2644
0.07415,-0.58165,-1.0057
0.1464,-0.48515,-1.2457
0.377175,-0.5692,-0.70385
0.30425,-0.7628,-0.6707
0.0344,-0.8207,-0.6587
-0.3273,-0.605,-0.55325
-0.6843,-0.1492,-0.4428
-0.77795,0.25475,-0.38745
-0.5566,0.2519,-0.4971
-0.1437,0.1955,-0.50465
0.2141,0.1443,-0.44235
0.3849,-0.06065,-0.4343
0.31595,-0.2202,-0.3761
0.15685,-0.26275,-0.37575
-0.0102,-0.177,-0.3157
-0.08425,0.0085,-0.25655
-0.07235,0.09685,-0.2776
0.01295,-0.00265,-0.36435
0.0212667,-0.1690333,-0.2721333
-0.0653,-0.20845,-0.15485
-0.0912,-0.1512,-0.079
-0.1174,-0.1477,-0.0049
-0.1656,-0.1135667,-0.2225
-0.0711667,-0.0578667,-0.1150333
0.04075,-0.22245,-0.25075
0.1223,-0.2139,-0.0926
0.0678,-0.2221,-0.07805
-0.03795,-0.26625,-0.06435
-0.0331,-0.2523,0.0654
