accx,accy,accz
-0.0029333,-0.0943,-0.1193
0.0279,-0.0248,-0.0468
0.0145,-0.00835,-0.0075
0.026,-0.2532,0.0212
-0.00295,-0.22935,0.06005
-0.0596,-0.24225,0.0969
-0.1086,-0.2394,0.04285
-0.0759,-0.19745,0.004
0.0313,-0.1669,-0.01485
0.1253,-0.16855,0.0078
0.20155,-0.17465,0.04995
0.22045,-0.18975,-0.01335
0.18065,-0.2417,-0.08945
0.1273,-0.23295,-0.1047
0.05205,-0.20695,0.0169
-0.0393,-0.14905,0.09495
-0.126,-0.1937,0.0102
-0.17835,-0.2717,-0.05615
-0.17665,-0.32035,0.06855
-0.1126,-0.2237,0.07815
-0.03715,-0.15035,0.10995
0.0602,-0.1407,-0.0976
0.0883,-0.15395,-0.25035
0.14135,-0.24875,-0.0515
0.20015,-0.25095,-0.0259
0.2429333,-0.1999,-0.2279
0.2501,-0.1742,-0.3403
0.2285,-0.17805,-0.3057
0.2150333,-0.1119667,-0.2244
0.1446,-0.19655,-0.1021
0.1187,-0.23625,-0.18915
0.1167,-0.2455,-0.2929
0.0872667,-0.2892,-0.0794667
0.09655,-0.1387,0.07915
0.02805,-0.0962,0.0611
-0.0469,-0.12495,0.02365
-0.1011,-0.16185,-0.0549
-0.1845,-0.17965,-0.0768
-0.22725,-0.1351,-0.11325
-0.24645,0.00745,-0.11695
-0.2198,0.08625,-0.168
-0.21425,-0.00055,-0.17805
-0.22285,-0.25955,-0.0765
-0.2335,-0.36575,-0.0022
-0.2328,-0.33115,-0.06795
-0.22435,-0.1809,-0.1458
-0.30595,-0.12115,-0.1426
-0.3486,-0.14395,-0.0384
-0.43415,-0.26835,0.08625
-0.35035,-0.22735,0.0226
-0.27375,-0.05545,0.1041
-0.2673,0.0216,0.17195
-0.41885,-0.00885,0.28485
-0.48205,-0.1722,0.5726
-0.42185,-0.36605,0.5362
-0.3802,-0.3691,0.4262
-0.24425,-0.31805,0.2707
-0.0123,-0.3902,0.06795
-0.12815,-0.3746,0.01715
-0.24005,-0.4663,-0.03695
-0.2809,-0.5722,0.0855
-0.1826,-0.7523,0.14685
-0.1665,-0.67275,0.24
-0.18545,-0.3993,0.2194
-0.2786,-0.25505,0.26995
-0.28595,-0.353,0.38955
-0.2368,-0.32685,0.49045
-0.1633,-0.0716,0.50195
0.0692,0.23605,0.36775
0.41315,0.531,0.27385
0.41435,0.59575,0.1897
0.09785,0.1371,0.15615
-0.13825,-0.429,0.04825
-0.33385,-0.7429,-0.14325
-0.3432,-0.68765,-0.48505
0.0542667,-0.4619,-1.1554333
0.59995,-0.3374,-1.4027
0.80005,-0.4373,-0.98965
0.7214,-0.411,-0.6478
0.5629333,-0.0259,-0.3734667
0.5988,0.2873,-0.4326
0.5212,0.0325333,-0.3477667
0.2993,0.0056,0.1366
0.1416667,0.5767,1.0170333
0.13085,1.3844,1.32875
0.0187,1.65565,0.5358
-0.1017,1.371,-0.0159
-0.0771667,0.1779667,0.0695333
0.085,-1.4939,0.62835
0.1862,-2.0821,0.6151
0.35555,-1.9051,0.13855
0.54945,-1.52225,-0.3591
0.7117,-1.2045,-0.55435
0.83455,-1.093,-0.47045
0.91005,-1.0787,-0.3766
0.8074,-1.08995,-0.2797
0.68645,-0.77445,-0.0272
0.63885,-0.34915,0.31885
0.5914,-0.157,0.4775
0.41435,-0.20425,0.4428
0.0175,-0.6652,0.39285
-0.27755,-1.5213,0.2125
-0.48525,-2.488,0.08545
-0.42435,-3.1223,-0.1667
-0.21965,-2.98605,-0.4189
0.22055,-2.3663,-0.3541
0.49255,-1.81345,-0.212
0.4392,-1.58755,-0.13125
0.2578,-1.7427,0.0879
0.2592,-1.7457,0.2824
0.57345,-0.87945,0.70935
0.8555,-0.42225,1.12005
0.755,-0.7304,1.00495
0.58075,-1.12535,0.76735
0.77225,-1.1375,0.7467
0.8332,-1.057,0.80505
0.4251,-1.0848,0.94155
-0.2022,-0.45485,0.90165
-0.50465,1.83875,0.3663
-0.5229,3.58025,-1.31185
-0.14305,3.69135,-3.1561
0.4482,3.28835,-2.8957
0.26265,0.5876,-0.67235
-1.5513,-0.0537,2.62725
-3.14795,3.9827,2.6494
-3.3899,7.4643,1.12345
-1.3984,7.7841,-0.973
-0.1146,4.4167,-0.5158333
0.0082,0.6626,1.2423
-0.2797667,-1.6279,0.4443
-0.2084,-2.55265,-1.27525
-0.0417,-2.5553,-1.8615
0.0265,-2.5463667,-2.0244
-0.1885,-2.5464,-2.1797
-0.4428,-2.7742333,-2.2557333
-0.68925,-3.22875,-1.7217
-0.9005,-3.38,-1.3703
-1.0243,-2.9939,-1.2543333
-0.79045,-1.9269,-1.4697
-0.69045,-1.3311,-1.56805
-0.46945,-1.5239,-1.23585
-0.2504,-2.56275,-0.61545
-0.5642,-3.5364,0.23815
-1.1097,-3.9428,0.8739
-1.6321,-3.332,0.9694
-2.11195,-1.84845,0.63675
-2.2597,-0.1814,-0.32365
-1.55285,0.20665,-1.14745
-0.56445,-0.55,-0.8363
0.42285,0.25995,-0.3413
1.7991,2.45695,-0.93975
3.51245,3.7867,-2.3767
3.73925,4.3766,-2.6833
2.09695,2.954,-0.14615
-0.1145,0.9046,2.6259
-1.3885333,2.0251333,3.8719333
-0.3462,8.70685,2.8761
0.9115,11.4554,-2.2232
1.6548,8.435,-3.9731
1.0285,2.1448,0.5926
-0.2324,-2.51405,2.12925
-0.77805,-4.18575,1.23145
-0.54805,-3.30405,-0.02685
-0.19105,-2.1327,-1.0549
0.637,-1.63155,-1.66055
1.43235,-1.8731,-1.80865
1.5821,-2.53575,-1.6182
1.08725,-3.11275,-1.62835
0.82585,-3.2074,-1.74755
0.5604,-2.82185,-1.5894
0.3108,-2.72055,-1.1736
0.25615,-3.04155,-0.66915
0.27545,-3.0732,-0.47695
0.47855,-2.2513,-0.18115
0.6595,-1.3444,-0.1264
0.5814,-1.44005,-0.1895
0.6309,-1.8177,-0.32565
1.2544667,-1.3334667,0.0513667
1.61725,-0.50255,0.49705
1.2318,-0.80725,0.6689
0.60925,-1.27,1.11375
-0.27055,-0.71765,1.4849
-1.11665,1.3657,0.4318
-2.3842,3.63205,-2.41265
-2.7272,3.8128,-5.3331
-1.2994,3.2105,-5.4605
0.067,2.5451,-1.505
-0.1199667,3.1399667,3.0152
-0.6176,8.06255,4.14555
-0.2195,10.5769,-0.07035
0.37365,7.2504,-1.31505
0.23465,0.6795,0.77265
-0.3595,-3.08765,1.88275
-1.0304,-3.9284,1.38615
-0.9156,-2.62065,-0.33025
-0.3817,-0.981,-2.06465
0.19985,-0.21995,-2.77635
0.1445,-0.5439,-2.24305
-0.29135,-1.24745,-1.2804
-0.47925,-2.02675,-1.098
-0.39805,-2.32435,-1.28235
-0.3128,-2.3097,-1.3773
-0.2957667,-2.037,-1.4537333
-0.38875,-2.4681,-1.53535
-0.11515,-3.9851,-1.3223
-0.01035,-5.39025,-1.10465
-0.1822,-5.54935,-0.91505
-0.56685,-3.76005,-0.63655
-1.1429,-1.01715,-0.3667
-1.06575,-0.36155,-0.2781
-0.94195,-0.25555,-0.76865
-0.86605,-0.42285,-0.1789
-0.7258,-1.17845,1.48765
-0.0238,-1.6404,2.0758
0.75075,-1.1422,0.43245
1.87665,0.5428,-3.0219
3.39725,1.2676,-5.24715
3.41415,2.4232,-4.30585
1.2264,5.3888,-0.36
-0.12705,5.49195,1.40695
-2.3133,5.38845,2.698
-2.2973,6.916,1.94055
-0.5615,8.8715,-0.50105
0.8247,7.55545,-0.2595
0.6978,3.5383,2.2634
0.28435,-0.8419,2.69235
-0.37815,-2.39225,0.7504
-0.8658,-2.0276,-0.80665
-1.3301,-1.3924,-2.0539
-0.9414,-1.7596,-2.2271
0.1242,-1.93875,-1.62455
1.3843667,-2.7957333,-2.0076
1.65705,-3.37215,-2.3414
1.1713,-3.3459,-2.08555
0.9638,-3.2058,-1.5481
0.3184,-3.6861667,-0.9581667
-0.0417,-4.3395,-1.1296
-0.1925,-4.0348,-1.56005
-0.0776,-2.9893,-1.4434
0.0453,-2.5435,-1.2118
0.2942667,-2.5318333,-1.2959
0.88565,-1.57055,-1.1503
1.5151,-0.463,0.18495
1.50515,-0.4494,1.96935
0.18255,0.1898,2.30705
-0.9129,3.3906,0.2955
-1.89045,5.95585,-2.85065
-1.2146,5.3729,-5.1817
0.2896,3.5997,-4.0115
0.04355,2.08955,-0.6631
-1.1872,2.8594,0.89835
-0.9658,5.57585,1.5055
-0.7484,8.25815,1.79565
-1.20055,6.65115,1.6203
-2.00185,1.89625,1.83745
-1.6196,0.1864,1.3327
-0.4502333,-0.0710667,0.2577
-0.0559,0.2436,-0.9899
-0.0376,0.04005,-1.29705
-0.1805,-0.7065,-1.1226
-0.3231333,-2.2185333,-0.9218667
-0.37175,-3.78445,-1.4385
-0.31405,-4.23095,-1.92435
-0.40035,-3.57765,-2.11855
-0.54645,-1.97105,-2.17395
-0.29315,-1.11225,-2.41595
-0.4986,-1.7662,-2.7378
-0.6301,-2.86715,-2.64785
-0.79175,-4.0267,-1.9896
-1.19915,-4.4976,-1.06735
-1.6339,-3.6538,0.0292
-1.51935,-2.1861,0.71375
-1.29515,-0.69725,0.51915
-0.98575,0.295,-0.5474
-0.4114,0.42875,-1.59035
-0.29795,-0.1027,-0.95505
-0.52395,-1.3634,0.8428
-0.3389,-2.334,1.5983
0.09555,-0.99645,0.2509
0.9393667,2.2060667,-2.6644
1.94725,2.3999,-4.7753
1.9566,2.1386,-3.6357
1.65125,2.6613,-1.1245
-0.2249667,4.1039,2.2866333
0.19335,7.3573,3.03715
1.1153,9.0601,0.7674
1.8356333,8.6864667,-1.6598
0.2165,3.5821,0.46955
-0.5101,-0.8194,2.4252
-0.4998,-3.0664,2.39825
-0.4881667,-2.8735,1.0952
-0.50445,-0.9311,-0.4412
0.16995,-0.21715,-1.2139
1.07415,-0.7104,-1.3568
1.17795,-1.89225,-1.1018
0.88095,-3.01655,-1.0079
0.51395,-3.4341,-1.1713
0.2209,-3.5288,-1.3824
0.21225,-3.29795,-1.24945
0.43595,-2.6164,-0.8709
0.40015,-2.25465,-0.3304
0.09745,-2.18225,-0.16115
-0.336,-2.25865,-0.87315
-0.25385,-2.72305,-1.12355
0.168,-3.22145,0.0908
0.342,-3.3043,1.2075
0.3799667,-2.4536333,1.4692
0.33265,-0.5172,1.0536
-0.26705,-0.02305,0.94255
-1.21455,0.4127,0.61725
-1.7199,2.2997,-1.19105
-0.6278,4.99345,-2.4462
0.5932,4.8162,-3.6967
1.079,3.08215,-3.9146
0.8339,2.15045,-1.6579
0.1812,2.15405,0.4264
0.1116,3.33285,1.38285
0.32805,5.09695,1.16285
0.63945,6.66975,0.78335
0.5716,4.32245,1.3693
-0.33665,0.8431,1.8247
-0.50845,-0.90625,0.74805
-0.40175,-1.62005,-0.4765
-0.2267,-1.8899,-1.2023
-0.2792,-2.2373,-1.29695
-0.53065,-2.3335,-1.4543
-0.48205,-2.4473,-1.66635
-0.87835,-1.66645,-1.3034
-1.0599,-1.3451,-0.85675
-1.10185,-1.6998,-0.56335
-0.7212667,-1.7838333,-0.8901
-0.2041,-1.4118,-1.3051
0.32335,-1.2321,-1.22765
0.601,-1.9976,-0.5492333
0.59155,-2.5485,0.1049
0.73945,-2.46965,-0.11675
0.7839,-2.33375,-0.57515
0.57965,-2.50785,-1.09985
-0.13235,-2.6836,-1.3557
-0.6685,-2.7226,-1.0857
-1.3511,-2.5084,-0.23845
-2.0943,-1.3840333,0.3011667
-0.5941,0.4274,-0.93705
1.55355,1.72415,-2.11335
3.44935,3.12595,-2.1724
3.18705,3.3209,-2.04695
1.14595,2.6171,-1.6449
-0.9868,2.4697,-0.00585
-1.2755,3.27185,1.7995
0.7054,6.08055,3.12635
3.11845,8.1205,1.6374
3.1121,7.5509,-0.86185
1.1035,3.44135,-0.2549
-0.0991,0.2402,1.0273
-0.57075,-1.99215,1.4202
-0.3177667,-3.0100333,1.0594667
0.2175,-1.89115,0.1055
0.79675,-1.3724,-0.802
1.32555,-1.5201,-1.31705
1.5069,-1.96545,-1.31345
1.2681,-2.7393,-1.07425
0.99225,-3.6265,-0.9461
0.78805,-4.0777,-0.87355
0.80225,-4.2815,-0.7535
0.6267,-4.2156,-0.4263
0.516,-3.6151,0.48875
0.4491,-2.78705,0.89585
0.65895,-2.1183,0.14485
1.3602,-1.62095,-0.69075
1.8155,-1.03375,-1.1715
1.57685,-0.82875,-0.57655
1.71155,-1.1805,0.87855
1.5097,-1.5162,2.15005
0.99245,-0.4224,2.0867
0.4386,3.3239,1.05205
0.1612,6.5909,-1.6762
0.22695,4.7044,-5.3976
-0.08925,1.2667,-4.1629
-1.8765,-1.78125,0.31925
-2.04095,-2.58135,1.77455
-0.4472667,2.5885667,1.4362
2.2046,9.4787,0.27205
3.7209,9.4541,-2.17055
0.97245,4.1896,0.29255
-0.385,0.47225,2.95755
-0.40815,-0.82625,1.91635
0.0704,-0.2988,-0.0388
0.454,0.1645,-1.2064
0.9681333,-0.1764667,-1.4053667
0.9423,-1.3955,-0.81475
0.44085,-2.2053,-0.9493
0.07495,-2.723,-1.35055
0.01125,-2.9407,-1.4079
0.11055,-3.06085,-1.3579
0.15015,-2.91415,-1.15775
0.22735,-2.66825,-0.84435
0.21845,-2.5783,-0.73425
0.02715,-2.9085,-0.3731
-0.01305,-2.9203,0.1204
0.2986,-2.47145,0.5448
0.68,-1.8021,0.9831
0.6253,-1.0992,1.27855
0.25785,-0.30275,1.25295
-0.05455,0.2257,0.99355
-0.14285,0.37785,1.0526
-0.4332,0.1649,1.4155
-0.31225,-0.2442,2.08775
0.03785,-1.14155,3.07335
0.1616,-1.3872,2.8549
-0.0311667,0.6958667,-0.165
1.39825,1.6975,-5.24225
2.4043,3.0529,-4.9781
3.79175,4.83285,-2.97105
4.1169,4.35735,-0.77695
2.89035,4.31015,0.2901
3.66835,6.46855,-1.0451
4.12675,8.2357,-1.96195
2.8425,6.51685,-1.7611
1.1157,3.0361,-0.037
-0.39785,-0.1616,0.37825
-0.06945,-1.9576,-0.04535
0.6428,-2.6775,-0.43645
0.84465,-3.374,-0.3723
1.1348,-3.96425,-0.4698
1.6668,-3.99725,-0.73565
2.0759,-3.56695,-0.98035
2.17285,-2.973,-1.1036
2.1224,-2.48225,-1.0911
2.36555,-2.1112,-0.7648
2.78945,-1.9919,-0.571
3.2342,-1.6195,-0.24455
3.07305,-0.93295,0.6099
1.5662333,-0.1075,1.1514
0.02005,0.49865,1.3802
-0.1917,0.715,2.0262
-0.6774,0.9688,2.5952
-0.7089333,0.5716,2.9730667
-0.11325,-0.5718,3.34885
0.5401,-0.4239,2.8963
2.1301667,0.6489,-0.1508333
5.7763,2.68215,-3.76365
6.6991,3.18125,-5.8515
3.56905,2.6384,-5.87675
0.7958,1.8856,-2.6986
0.45685,1.0071,0.43995
0.84945,0.903,-0.0605
1.7752,1.324,-1.1282
2.4728,1.5699,-1.48495
2.2588333,1.2189333,-1.9877667
1.51065,0.2998,-2.175
1.33425,-0.60225,-1.82105
1.00705,-1.1413,-1.508
0.60455,-1.08195,-1.01085
0.304,-0.5206,-0.7036
0.5893,-0.01655,-0.88065
1.1539,-0.0553,-0.8481
0.7677667,-0.4717667,-0.4117
-0.89005,-1.0424,0.31805
-1.5534,-0.73115,-0.0288
-0.89405,0.10295,-0.19225
0.58875,0.60655,0.3933
1.42585,0.4067,0.8259
1.21185,-0.1948,0.7779
0.6407,-0.9084,0.7453
-0.03655,-1.6521,0.74665
-1.09195,-1.8962,0.65015
-1.81675,-1.5902,1.3881
-1.22755,-0.81495,1.2709
0.08285,1.35185,-0.19245
2.08335,3.76855,-1.7951
3.8915,4.62555,-2.03725
3.41565,2.93475,-0.8211
0.9777,-1.23085,1.5768
-1.4568,-3.94375,1.42335
-0.5319,-4.07945,0.08595
0.4765,-2.0091,-0.3915
1.7928,0.8749333,-0.4443333
2.56365,3.05695,-0.2297
1.0671,2.7393,-0.176
0.68985,0.32785,0.59665
1.3627,-1.67305,1.12995
1.74445,-2.35875,0.8885
1.72995,-1.8875,0.4608
1.0789667,-0.7247667,0.1208667
0.6224,-0.1328,0.1958
0.29775,-0.18395,0.30675
0.019,-0.7183,0.3982
-0.0811667,-1.2134333,0.2417
0.4853,-1.7615,-0.0031
1.9639,-1.6608,-0.2660333
2.65485,-1.13455,-0.1665
1.7019,-1.025,0.18775
1.36825,-1.0566,0.3619
0.9661,-1.0446,0.1833
0.5996,-1.0881333,-0.2842667
0.4683,-1.22705,-0.30005
0.50695,-1.5194,0.26575
0.52445,-1.9863,0.63465
0.5078,-2.54285,0.54225
0.4925,-3.1022,0.01685
0.7436,-3.9617,-0.37425
1.0854,-4.6792,-0.2564
1.2204667,-4.9059,0.1685
1.23535,-3.89,1.05815
1.18855,-2.3806,1.762
0.9669,-1.3782,2.0252
0.5841667,-0.1190667,1.8153333
0.04665,0.72165,1.4474
-0.33515,0.10705,1.91565
0.09815,-0.43565,2.80935
0.3418,-0.6832,3.1431
1.0109,0.2057,1.6324
3.2452,3.0043667,-0.3927333
1.6914,5.0529,-0.05795
0.0749,5.0608,1.6348
-1.8913667,3.1117667,3.0392
-2.4241,1.0303,-0.9682
0.2323,5.47515,-3.27035
0.92995,8.6848,-3.16175
-0.6916,7.0808,-1.41705
-1.30245,4.49415,-0.65215
-0.61545,1.6275,-2.0669
0.41375,0.4923,-2.0758
1.18695,0.34755,-1.9731
1.05385,0.34075,-1.644
0.83895,0.35825,-0.90565
0.1275,0.5159,-0.71185
-0.7167,0.1203,-0.8784
-0.80065,-0.59635,-0.91405
-0.2326,-1.2734,-0.63025
0.21195,-1.7899,-0.14865
0.4987,-2.2839,-0.1836
0.6118,-2.43115,-0.58545
0.19805,-2.4092,-1.0775
-0.1363,-2.4417,-1.0531
-0.72995,-2.46765,-0.4683
-1.0821333,-2.0876,-0.1223
-1.07135,-1.7175,-0.32975
-1.024,-1.5364,-0.5685
-0.8718,-1.7136,-0.7062
-0.48265,-2.3424,-0.78265
0.0854,-3.4401,-0.9818
0.4598,-3.5864,-1.1156
0.39535,-3.3871,-0.5814
0.2226,-3.4806,0.2645
-0.7078,-3.0417667,2.2864333
-1.93275,-1.4029,3.7315
-1.75175,0.1691,1.98125
-1.076,1.3494,-0.30905
-0.1592,1.39625,-0.1109
-0.1154,0.19245,1.8497
-0.4437,-0.6971,2.5472
-0.5142333,-1.4062,1.5312
-0.11585,-1.86915,0.0903
0.4394,-1.5714,-0.8076
1.17375,0.5211,-1.6197
1.49955,2.17995,-2.3594
1.60005,2.13845,-2.2073
0.8421,1.641,-1.1201
-0.47695,0.5611,0.3803
-0.21715,1.65885,1.58115
1.1877,5.8854,2.15555
2.23215,9.287,0.2201
1.85265,8.5154,-1.937
0.71635,4.261,0.28755
-0.02785,-0.49715,2.25785
-0.5961,-2.8833,1.6642
-1.30195,-2.9218,0.5872
-1.5498,-1.94525,-0.45225
-1.0177,-1.19225,-1.0135
0.2357,-1.17595,-0.98745
1.2632,-1.5629,-0.86695
1.26545,-1.9729,-0.9212
0.56565,-2.3905,-1.0123
0.4527,-2.80745,-0.86035
0.5138,-2.97175,-0.4903
0.524,-3.42345,-0.11585
0.30925,-4.35625,-0.3599
0.08855,-4.8942,-0.9553
0.27145,-4.3267,-0.715
0.4094,-2.64665,-0.51015
0.33105,-1.35245,-0.388
0.5614,-0.92175,0.26255
0.6736,-1.2893333,1.2944333
0.4758,-1.6525,2.4765
-0.0031,-1.522,2.6208
-0.769,0.4412,1.4322
-0.66075,4.2698,-1.02535
0.3110667,5.6070333,-4.0336667
1.3456,2.76185,-4.44995
1.5719,0.974,-2.1546
-0.3148,0.5411333,1.2953333
-1.8252,2.7353,1.5997
-1.61675,5.98395,0.34065
-0.8879,7.7196,-0.9658
-0.2433667,6.0914333,-0.5766667
-0.6362,1.828,1.86485
-0.88245,-0.23645,1.4545
-0.7241,-0.847,0.5153
-0.20105,-0.7635,-0.42995
0.5232,-0.4875667,-1.3028667
0.3919,-0.78205,-1.2848
-0.011,-1.278,-1.2243
-0.3671,-2.1082333,-1.3745667
-0.4781,-3.2028,-1.7381
-0.4856,-3.765,-2.04515
-0.4927,-4.0757,-2.212
-0.605,-4.3711667,-2.2219
-0.8673,-4.3155,-1.9906
-1.1747,-4.1161333,-1.3219333
-1.506,-3.03695,-0.3306
-1.5534,-1.0775,0.41645
-1.1983,0.42615,0.30365
-0.59735,0.8025,-0.61815
-0.1481,0.36995,-0.6839
-0.62115,0.04735,0.9245
-0.9149,-0.30655,2.51845
-0.5093,-0.27655,2.5665
0.74575,0.7741,0.8796
2.02755,2.45315,-1.8111
2.567,2.7468,-3.6716
2.0925,1.853,-2.9131
0.17575,0.9922,-0.9474
-1.68935,0.9112,-0.0136
-1.4084,1.9044,0.8429
-0.0841,4.03495,1.8578
1.5489,6.14295,1.5976
2.42575,6.7696,-0.26155
1.9004,4.0163,-0.75205
0.78435,0.237,0.65545
-0.18855,-2.22755,1.22305
-0.74235,-2.97705,0.805
-0.87335,-2.5483,0.0316
-0.33615,-2.08745,-0.69725
0.4876,-1.85545,-1.3652
0.8215,-2.0915333,-1.948
0.7628,-2.9392,-2.0361
0.61165,-3.8598,-1.7575
0.3566,-4.50045,-1.0332
0.3324667,-3.8788667,-0.2259
0.6778,-1.5706,-0.1842
0.8671,-0.5275,-0.5761
1.20405,-0.5667,-0.8571
1.3988,-1.8008333,-0.4880333
1.10285,-2.5985,1.0252
0.6182,-2.22275,2.0801
0.001,-1.4109,2.1269
-0.5308667,0.6677667,1.1028667
-0.36475,4.7187,-1.37755
0.02715,4.6207,-4.28855
-0.43605,0.158925,-1.980975
-1.0253,0.2824,1.2363
-0.7852,5.6549333,1.0608333
2.2407333,8.7004333,-2.1733
1.6738333,3.2424333,0.5502
-0.9667,-0.8443,3.742
-1.8649,-1.191825,1.48845
-0.6156667,0.7680333,-2.3825333
0.1834,0.4292,-2.02905
-0.3009,-1.1252,-1.0281
-0.41105,-2.4972,-0.81985
-0.20765,-3.4236,-1.3669
-0.17445,-3.5462,-1.7744
-0.01075,-3.0461,-1.6699
-0.04155,-2.4637,-1.63135
-0.17625,-2.5947,-1.44535
-0.1476,-2.7043,-1.2143
0.0945333,-2.7942667,-0.8088
0.31965,-2.77045,0.20405
-0.07645,-2.7606,0.62095
-0.5865,-2.2385,0.2798
-1.0838,-1.3554,-0.4103
-1.3689,-0.7028,-0.78425
-1.23845,-0.8919,-0.70305
-0.37915,-1.0903,-0.51185
0.5923,-0.5061,-0.5276
1.5277667,0.8299667,-1.0783
2.1113,2.2999,-2.18395
1.0884,2.2232,-2.47075
0.12245,1.32745,-0.543
0.3815,1.8841,2.11395
1.2904,5.6027,3.3346
2.14035,9.28515,1.7499
2.68685,9.5178,-0.72185
1.7594,3.8038,1.4831
0.2754,-0.8516,3.69485
-0.2428667,-2.0785333,1.9388333
-0.5724,-0.107,0.01935
-0.41975,0.78125,-1.04255
0.1498,0.2488,-1.1021
0.6492,-1.3260333,-0.807
0.9147,-3.32025,-0.4618
0.85195,-4.3862,-0.792
0.75585,-4.9211,-1.14765
0.9241,-4.7462,-1.29895
1.21545,-3.8826,-0.9828
1.31285,-3.0966,-0.4676
1.0646,-2.27305,-0.2377
0.5432,-1.6092,-0.30765
0.3028,-1.82515,-0.1734
0.30535,-2.14685,0.2138
0.3683,-1.95755,0.56565
0.3557,-1.72335,0.958
-0.38035,-0.8042,1.1215
-0.7187,3.256,-0.2254
-0.0069,5.7256,-2.1959
0.3737333,4.5762,-4.3946667
0.63775,2.3266,-3.7518
0.7051,0.62955,0.13065
-0.24425,0.95275,2.9933
-0.87135,4.20645,2.6441
-0.5307,8.375,0.0961
0.6584,8.36605,-2.17125
0.68045,3.815,-0.69575
-0.05215,0.8779,1.59995
-0.1571,-0.3967,1.598
-0.1024,-0.7894667,0.2852667
0.17175,-1.0977,-1.35645
0.29265,-1.77915,-2.0029
0.0003,-2.5502,-1.88005
-0.6001,-2.9502,-1.26745
-0.964,-2.9386,-0.9055
-0.9604,-2.6699,-1.03935
-0.5930667,-2.6308,-1.4471333
-0.4745,-2.89455,-1.50315
-0.1722,-3.8859,-1.4734
-0.04215,-5.21015,-1.36985
-0.30865,-5.469,-1.1106
-0.5713,-4.19255,-0.4292
-0.54085,-2.0423,0.68505
-0.43515,0.19315,1.5227
-0.51875,1.57725,0.7693
-0.7169,1.10355,-1.01315
-0.7508,-0.761,-1.00935
-0.4842,-2.0046,0.56255
0.7719667,-0.6365333,0.8283
2.7274,2.7691,-1.0712
3.2914,3.7794,-3.8364
1.5694333,3.3053,-2.6754
-0.1258,3.8399,2.0566333
-0.3826,5.9226,3.072
1.27245,8.49305,2.0332
3.23125,7.30195,0.967
2.7845,2.5652,1.3264
0.6691,-1.4325333,2.6580667
-0.96085,-3.62005,2.2665
-1.3429,-3.2242,0.5923
-1.4056,-2.4281,-0.7214
-0.68835,-1.55505,-1.6415
0.55955,-0.93785,-2.3168
1.32575,-1.74775,-1.93965
0.3089667,-4.2467333,-1.4021
-0.295,-6.2937,-1.2757
-0.0975,-6.8904667,-1.8162667
0.76835,-4.65865,-2.14155
1.52155,-2.09085,-1.96975
2.3897,-1.0754,-1.2278
2.7582,-1.0825,-0.528
2.6173,-1.8095,-0.18895
1.5141,-3.41985,0.6816
-0.0336,-3.7567,1.6079
-1.07755,-0.1502,0.8024
-0.77205,5.52345,-0.9869
0.2546,7.3918,-2.1527
0.3069333,5.557,-3.1776333
-2.4213,2.6507,-0.1426
-4.0263,4.4856,2.2873
-3.2574,7.27445,1.2973
0.38325,7.971,-0.03515
3.67945,5.2951,-0.0522
3.7981,1.8009,2.1532
2.1836,-0.0333,3.57475
0.5287,-0.785,3.0966
-1.0772,-0.6059,0.5667
-0.88645,-0.6404,-2.26
-0.14455,-1.37065,-2.37455
0.7684,-1.69135,-1.398
0.4821,-2.28075,-1.1359
0.1422,-3.031,-1.2882
-0.327,-3.4116,-1.42255
-1.18865,-3.41025,-1.00415
-1.967,-3.726,-0.4161
-1.9314,-3.936,-0.2688
-1.53,-4.1483,-0.4204
-0.70805,-5.225175,-0.22965
-0.457,-6.265,-0.165
-0.8552,-5.8921,-0.0048667
-1.1772,-2.32085,0.3521
-1.2437,0.59825,-0.27135
-1.32715,1.53125,0.10065
0.0148,3.9133,-0.15375
1.375,7.79675,-2.05345
2.67225,7.98895,-2.98115
2.10985,8.33585,-2.9266
1.7323,7.3358,-2.831
3.0513,3.3095333,-0.0037667
2.62335,2.51675,2.31295
1.5259,4.3203,1.6553
0.5495,6.98905,-0.3787
-1.25055,6.9894,-2.60995
-0.2940667,2.6176,-1.0888333
2.10885,-0.2849,0.87225
2.9056,-1.4196,0.6903
2.1769,-1.93725,-0.6964
0.6420667,-2.5129333,-2.3974333
0.165,-3.95145,-1.9971
-0.0673,-4.8357,-0.95275
-0.0422,-4.7611,-0.7014
0.2122,-3.7604,-0.6972
1.2859,-2.96015,-0.83825
1.58065,-2.5288,-1.11865
1.2815,-2.3838,-0.9619
0.7674,-1.4579333,-0.0662333
-0.0308,0.2458,0.74655
-0.5973,1.6203,1.039
-0.80495,2.1884,1.0073
-0.9309,1.8248,1.1134
-1.06045,2.53855,1.59285
-0.86105,4.71835,0.3632
0.49375,6.44805,-2.19595
1.9569,6.8133,-4.3229
2.1746333,3.5719333,-5.1443
1.65615,-3.59705,-2.064
0.0475,-6.3057,-0.064
-1.6479,-5.0711667,-0.3639
-1.24275,0.13485,-1.7284
0.58735,3.5462,-2.9158
2.3478,6.5378,-3.4749
2.54025,6.68115,-3.52955
1.6208,2.4027,-2.1785
-0.41575,-1.48905,-0.77165
-1.4772,-3.54225,-0.7223
-1.31875,-4.2299,-1.3866
-0.35825,-3.69305,-1.7532
0.0806,-3.00085,-1.3519
-0.0431,-2.65025,-0.7557
-0.1742,-2.1241,-0.5998
-0.0048,-0.6142667,-1.2355667
0.0614,1.511,-1.9058
-0.77835,4.258825,-2.32245
-0.5147,6.4012,-1.58
-0.21755,4.10435,-0.38875
0.5576,-0.6155,1.15155
1.2861,-3.06015,1.1062
1.5892,-2.81135,0.07765
1.0764,-0.09605,-1.0967
-0.2014,0.3679667,-1.5901
-0.4473,-0.2147,-1.254
-0.03215,-0.76485,-0.67415
0.43515,-1.19775,-0.25975
0.4705,-0.6445,-0.36245
0.2507,0.0093,-0.6498
0.044,0.7611,-0.858
0.11495,0.9584,-0.7107
0.2563,0.7923,-0.4357
0.3374667,0.0607333,-0.13
0.2775,-0.6624,0.027
0.2511,-0.81305,-0.1226
0.1885,-0.5794,-0.26355
0.0947667,-0.2667333,-0.1299667
0.114,-0.3043,0.1311
0.1195,-0.4175333,0.1597
0.1028,-0.3203,0.0844
0.0803667,0.1247,0.0047
0.0582,0.5363,-0.014
0.0309667,0.378,-0.0687333
-0.00625,0.21825,-0.2399
0.04545,-0.03935,-0.1036
-0.0916,-0.67945,0.16985
-0.21585,-0.46745,0.11105
-0.19265,-0.23235,-0.39975
-0.0469,-0.11975,-0.49585
