accx,accy,accz
-0.0021667,-0.1336333,-0.0851667
-0.0103,-0.13415,-0.0798
-0.02285,-0.1511,-0.0883
-0.00915,-0.16925,-0.05605
-0.019,-0.1819,-0.03825
-0.0236,-0.143,-0.0165
-0.01125,-0.11945,-0.002
-5e-05,-0.1193,-0.0236
-0.0042,-0.1732,-0.0604
-0.0008,-0.1662,-0.0758
0.0054667,-0.1516,-0.1199667
0.0059,-0.1528,-0.095
0.02365,-0.16395,-0.05785
0.00515,-0.12505,-0.04485
-0.0278,-0.11735,-0.0514
-0.0639,-0.1485,-0.0657
-0.02325,-0.19805,-0.03905
-0.02015,-0.2121,-0.03715
0.0121,-0.1885,-0.01645
0.0013,-0.17325,-0.01195
-0.0125,-0.15835,-0.00965
-0.01485,-0.17715,-0.0179
-0.0195,-0.18685,-0.04995
-0.01545,-0.16615,-0.06215
-0.0174,-0.1438,-0.0564
-0.01085,-0.13555,-0.08055
-0.0007,-0.1351,-0.0619
-0.00835,-0.15005,-0.07735
0.0101,-0.17645,-0.08365
-0.0035,-0.17735,-0.08925
-0.0063,-0.17745,-0.0666
-0.01685,-0.17205,-0.0626
-0.01235,-0.1432,-0.04575
0.00375,-0.136,-0.08415
0.0045,-0.1617,-0.11865
-0.0113,-0.1791,-0.06995
-0.02745,-0.16085,-0.10715
0.002,-0.16155,-0.11085
0.0141667,-0.1349333,-0.0698333
-0.0142,-0.1102,-0.0519
-0.0228667,-0.1208333,-0.0637667
-0.0092,-0.1895,-0.0429
-0.0055333,-0.2117,-0.039
0.0052,-0.2191,-0.0472
0.0019,-0.18865,-0.0563
-0.0012333,-0.1522333,-0.0608333
0.0004,-0.155,-0.0501
0.02065,-0.13265,-0.07225
0.00385,-0.1355,-0.0778
-0.0103333,-0.1591333,-0.0928
-0.0331,-0.1698,-0.0907
0.0121,-0.1755333,-0.0863333
0.0263,-0.1919,-0.0416
0.0165333,-0.1856667,-0.0621333
-0.00815,-0.1764,-0.07435
-0.0265,-0.1781,-0.0853
-0.0298667,-0.1739333,-0.0817667
-0.02195,-0.14565,-0.0559
-0.00925,-0.1758,-0.06495
-0.01275,-0.20205,-0.06425
-0.01115,-0.2012,-0.01715
-0.0043,-0.21855,-0.07415
0.0024,-0.2059,-0.0725
-0.017,-0.1779,-0.05225
-0.00885,-0.1274,-0.0347
-0.0221,-0.11625,-0.05365
-0.02725,-0.11115,-0.0792
-0.0075,-0.1354,-0.05865
0.01895,-0.1624,-0.05485
0.0333,-0.17245,-0.0522
0.05135,-0.1529,-0.06095
0.00655,-0.16465,-0.1085
-0.0052,-0.15565,-0.07915
-0.01545,-0.1623,-0.0565
-0.02535,-0.15585,-0.0619
-0.024,-0.15235,-0.09385
-0.0121,-0.14735,-0.0845
0.0004,-0.13155,-0.05285
-0.00445,-0.1252,-0.0511
-0.01395,-0.1312,-0.0937
0.0094,-0.19055,-0.1087
-0.00705,-0.1752,-0.07475
-0.0187,-0.1519,-0.10485
0.00505,-0.1604,-0.11055
0.0319,-0.14965,-0.07595
0.0005,-0.1284,-0.10545
-0.0374,-0.18925,-0.13035
-0.0183,-0.18275,-0.08235
0.0082,-0.164,-0.0703
0.02565,-0.1451,-0.0621
0.0504,-0.13455,-0.07085
0.0508333,-0.1567333,-0.0458
0.04055,-0.11,-0.0596
0.0086,-0.13825,-0.05595
-0.0151,-0.1595,-0.0631
0.0178667,-0.1670333,-0.0519
0.01565,-0.15125,-0.03535
0.0167,-0.1525,-0.0291
-0.0255667,-0.1471333,-0.0377
-0.03125,-0.13265,-0.07
-0.046,-0.1431,-0.0999
-0.0327,-0.1525,-0.1048
-0.0006667,-0.1552667,-0.0947
-0.0048,-0.1487,-0.1189
-0.0289,-0.1337333,-0.0655333
-0.1034,-0.15625,-0.03505
-0.1222,-0.1213,-0.0854
-0.0245333,-0.1421667,-0.1765333
0.06675,-0.17235,-0.15775
0.02475,-0.15195,-0.1056
-0.0328,-0.1292,-0.0966
-0.0655,-0.1474333,-0.0333667
-0.03765,-0.1664,0.04965
-0.0596,-0.15005,0.0138
-0.07745,-0.14335,-0.0516
-0.0773,-0.15205,-0.0951
-0.051,-0.14295,-0.1225
-0.0378,-0.12395,-0.1065
0.0052,-0.1181,-0.04265
0.0121,-0.1596,-0.0574
0.04215,-0.14665,-0.05135
0.0434,-0.1662333,-0.0381333
0.05495,-0.16795,-0.06195
0.0074,-0.15275,-0.09035
-0.0146,-0.1305,-0.112
-0.0026,-0.1328667,-0.1128333
0.0236,-0.1566,-0.0977
0.0281333,-0.1904333,-0.1017667
0.00985,-0.16965,-0.0702
-0.01055,-0.1535,-0.0481
-0.0035,-0.12195,-0.07805
0.0158,-0.1354,-0.10655
0.0175,-0.16595,-0.1095
0.02355,-0.18255,-0.0622
-0.01185,-0.1789,-0.07025
-0.01175,-0.1712,-0.07765
0.00835,-0.1287,-0.08665
0.0071,-0.0977,-0.0672
-0.01435,-0.0667,-0.10525
-0.0206333,-0.0890667,-0.134
-0.0132,-0.1411,-0.1195
-0.0237,-0.14375,-0.12155
0.0177333,-0.1449,-0.1109333
0.0541,-0.10205,-0.16605
0.04035,-0.0824,-0.1908
0.0397,-0.0791,-0.2209
0.01375,-0.0787,-0.2622
-0.0258,-0.10615,-0.2967
-0.0228,-0.1221,-0.3364333
-0.01075,-0.0891,-0.3843
0.02945,-0.10955,-0.4358
0.1052,-0.1675,-0.47255
0.1112,-0.19125,-0.5133
0.06795,-0.21925,-0.553
0.0034,-0.23215,-0.55115
-0.04625,-0.2462,-0.53185
-0.0756,-0.3649,-0.47455
-0.105,-0.46365,-0.38665
-0.05835,-0.54615,-0.3962
0.08615,-0.64205,-0.4613
0.2202,-0.66,-0.51195
0.23055,-0.66825,-0.4597
0.13435,-0.6311,-0.33265
0.1341,-0.69205,-0.2184
0.244,-0.6009,-0.15005
0.21055,-0.23395,-0.01135
0.2171,0.15915,0.0358
0.26675,0.2389,0.0254
0.3281,-0.1551,-0.2012
0.2594,-0.3059,-0.4383
0.0936,-0.56305,-0.2439
0.0572,-0.7383,0.1039
-0.0428667,-0.7987667,0.2966667
-0.2839,-0.6387,0.1558
-0.40265,-0.5482,0.0053
-0.45,-0.4668,0.0475
-0.5642,-0.3703,0.1883
-0.6676,-0.2726,0.2535
-0.6625,-0.2137,0.2324
-0.64,-0.19645,0.0562
-0.56975,-0.3562,-0.1636
-0.4269,-0.61175,-0.30835
-0.2083,-0.50295,-0.30745
0.0652667,0.0752333,-0.2256
0.39625,-0.3295,-0.2999
0.3168,-0.601,-0.3938
0.1801,-0.5662,-0.3998
0.1035333,-0.6761667,-0.1857
0.03145,-1.02975,-0.03795
0.0886,-1.42,-0.0411
0.0957,-1.80455,-0.3244
-0.60535,-2.26915,-0.35685
-1.47165,-2.6514,-0.51595
-1.16385,-1.76005,-0.38575
-0.7354,-0.7069,-0.4641
-0.4811,-0.43315,-0.4981
0.5038,-0.30935,-0.2446
1.27525,-0.09435,-0.07625
0.9328,0.0993,0.28985
0.0233,0.0204,0.4026
-0.54475,-0.539,0.23025
-0.6186,-0.9786,0.0798
-0.1933667,-1.2548667,-0.0016
0.5702,-1.35335,-0.0114
1.0025,-1.04325,-0.0549
0.98655,-0.7325,-0.09935
0.6182,-0.5993,-0.1874
0.1994,-0.3469667,-0.3141667
-0.15205,0.1185,-0.38885
-0.22455,0.6532,-0.45555
0.0049,1.07775,-0.47095
0.2315,1.1704,-0.4687
0.5808333,1.0179,-0.5447
0.74005,0.59165,-0.527
0.65815,0.215,-0.46585
0.43345,-0.19445,-0.44585
0.10625,-0.2727,-0.46045
-0.3189,0.4783667,-0.6385333
-0.10705,1.3813,-0.597
0.1014,1.8857,-0.4114
0.3298333,2.6768667,-0.0008333
0.42025,2.9937,0.37385
0.1053,2.4981,0.4199
-0.1943333,2.0332667,0.5138
-0.60405,1.43865,0.704
-0.796,1.5406,0.82775
-0.7312,1.7292,0.8533
-0.57195,1.76925,0.83145
-0.4065,1.2623,0.6757333
-0.21305,0.1782,0.61885
-0.13935,-0.76925,0.69035
-0.1567,-1.2895,0.7407
-0.1932,-1.5126,0.6287
-0.23515,-1.22165,0.34265
-0.25845,-0.76515,0.15835
-0.32225,-0.2545,0.0342
-0.2893,-0.0244,-0.051
-0.1832667,0.0409667,-0.1070333
0.09075,-0.0291,0.14365
0.2404,-0.3401,0.3075
0.26215,-0.5957,0.37005
0.2066,-0.7393,0.434
0.0792,-0.7391333,0.4702
0.00645,-0.57635,0.4145
-0.06845,-0.46745,0.3569
-0.1086,-0.35175,0.27715
-0.1006,-0.2522,0.2475
-0.10105,-0.22235,0.1539
-0.16695,-0.2533,0.0717
-0.2275,-0.32355,0.0549
-0.29275,-0.44345,0.11255
-0.30715,-0.56255,0.10135
-0.20405,-0.62755,0.1425
-0.0481,-0.6846,0.18005
0.0355,-0.62325,0.24375
0.03305,-0.3846,0.3116
-0.0176,-0.18815,0.2412
-0.13335,-0.1079,0.1679
-0.22685,-0.1779,0.14675
-0.2769,-0.316,0.1152
-0.23505,-0.4474,0.10325
-0.15905,-0.44145,0.14205
-0.11015,-0.3318,0.1279
0.0051,-0.2679,0.17415
0.10235,-0.11775,0.1918
0.1553,-0.01495,0.27145
0.2748,-0.0882,0.35955
0.3092,-0.19985,0.4365
0.0797667,-0.1317333,0.287
-0.20135,-0.05575,-0.25525
-0.3665,-0.16,-0.7956
-0.6325333,-0.5227333,-1.0931667
-0.5603,-0.6317,-0.916
-0.1511,0.0081667,-0.5374
0.20345,0.2198,-0.17695
0.2315,0.0411,0.097
0.0624,-0.1256333,0.3830333
-0.2285,-0.1803,0.3824
-0.2829667,-0.1832,0.2514333
-0.1699,-0.0896,0.0624
-0.08135,-0.1771,0.01005
-0.0499,-0.3165,0.0263
-0.0822,-0.3365667,0.1175667
-0.07605,-0.20305,0.11025
0.0809,-0.0314,-0.0659
0.37405,0.09885,-0.2467
0.5521,0.2006,-0.361
0.5526333,0.1941,-0.4098667
0.1273,0.111,-0.3993
-0.1753,0.01655,-0.36575
-0.3143,-0.02395,-0.3627
-0.19815,0.00245,-0.313
-0.01955,0.0703,-0.27145
0.1578,0.1434,-0.19645
0.2168,0.1816,-0.06665
0.2591,0.1462,0.06245
0.18015,0.06395,0.0859
-0.01935,-0.08875,-0.03135
-0.1636,-0.1424,-0.29625
-0.31085,-0.0803,-0.41465
-0.4233,-0.2208,-0.5184
-0.4079,-0.2753,-0.43925
-0.237,-0.0887,-0.2555
-0.0965,0.09175,-0.15155
-0.051,0.18255,-0.15515
-0.1353,0.23525,-0.24665
-0.2034,0.19955,-0.3049
-0.15815,0.08525,-0.3312
-0.1046,-0.0727,-0.4091
-0.02065,-0.11595,-0.32195
0.03725,-0.0927,-0.17155
0.051,-0.1274,0.03645
-0.0263,-0.2152,0.2323
-0.07415,-0.2975,0.19245
0.0472,-0.3576,-0.02975
0.15935,-0.02445,-0.11205
0.16595,0.29725,-0.0339
0.0481,0.1875667,-0.0041333
0.027,-0.03,-0.04605
0.026,-0.1751,-0.10955
0.0104,-0.2353,-0.1257
-0.0067,-0.2238,-0.1431
-0.0466,-0.1254333,-0.1776
-0.08175,-0.00535,-0.1451
-0.084,0.02105,-0.1208
-0.0813,0.023,-0.1402
-0.0068667,0.0121667,-0.1253
0.0472,0.0511,-0.1193
0.0301667,0.0699,-0.1562333
-0.0055,-0.02005,-0.21525
-0.01935,-0.096,-0.25195
-0.03475,-0.1488,-0.25765
-0.0303,-0.2044,-0.2426
-0.0373333,-0.1561667,-0.1777
0.00435,-0.0447,-0.0422
0.0247,-0.00445,0.00815
-0.00495,-0.0403,0.03025
-0.0197,-0.0399,0.0284
-0.0252667,-0.0497667,-0.0098333
-0.0434,-0.07485,-0.07395
-0.0544,-0.12285,-0.09505
-0.0448,-0.18665,-0.09845
-0.03095,-0.1843,-0.09565
-0.03355,-0.12985,-0.0979
-0.03245,-0.0624,-0.1012
-0.0425,-0.03665,-0.1026
-0.04455,-0.03785,-0.10925
-0.0467,-0.0313,-0.0888
-0.04595,-0.0071,-0.083
-0.021,-0.0286667,-0.1340333
-0.02675,-0.0828,-0.07595
-0.03375,-0.1226,-0.08735
-0.0174,-0.17955,-0.0555
0.0013,-0.14755,-0.0355
0.02235,-0.0399,-0.0437
0.0071,-0.00365,-0.0802
0.00065,-0.0404,-0.09485
-0.01455,-0.086,-0.0951
-0.0165,-0.10955,-0.11495
-0.0062,-0.1532,-0.12685
0.009,-0.10625,-0.14935
-0.0153,-0.021,-0.21245
-0.0237,-0.00755,-0.22755
-0.0143,-0.05515,-0.14495
-0.01005,-0.06975,-0.04975
-0.0041,-0.0819,0.0001
-0.00935,-0.0786,-0.00825
-0.0023,-0.08745,-0.055
0.0083333,-0.1207667,-0.0743333
-0.0226,-0.1686,-0.09545
-0.06245,-0.17265,-0.10805
-0.0652,-0.1491,-0.0798
-0.0446,-0.11585,-0.08075
0.0059667,-0.0376,-0.0781333
0.03095,0.0209,-0.07515
0.0041,0.0285,-0.1208
-0.0254,-0.0185,-0.1379
-0.0290667,-0.1404667,-0.0594
-0.0233,-0.2034,-0.1051
0.02505,-0.19395,-0.11
0.03765,-0.0869,-0.0914
0.0304,-0.007,-0.09075
0.00405,-0.04105,-0.07605
-0.0143,-0.09465,-0.0743
-0.03235,-0.1356,-0.04895
-0.03695,-0.16525,-0.07165
-0.0247,-0.15175,-0.09935
-0.0437,-0.1261,-0.0774
-0.0253333,-0.0577667,-0.1078
-0.01705,-0.0159,-0.1186
-0.00955,-0.08,-0.0785
-0.0096,-0.1219,-0.05155
-0.0073,-0.1269,-0.03415
0.0151,-0.1469,-0.0382
0.0168333,-0.1196667,-0.0695667
0.0137,-0.0824,-0.08355
-0.0124,-0.07575,-0.0893
0.0023,-0.10285,-0.0844
-0.0057,-0.10655,-0.0988
-0.00265,-0.1073,-0.08635
0.00515,-0.0781,-0.10655
0.0015,-0.05335,-0.06675
0.0225,-0.06195,-0.0579
0.0084,-0.0826,-0.09015
0.0008,-0.11745,-0.06335
-0.0332,-0.09435,-0.11775
-0.06265,-0.1266,-0.13295
-0.06705,-0.1018,-0.1088
-0.03465,-0.00215,-0.07885
-0.0063,0.0259,-0.0793
0.0044,-0.0323,-0.0829
0.00325,-0.10805,-0.09215
-0.001,-0.1537,-0.0569
-0.0082,-0.15785,-0.0824
-0.00775,-0.11835,-0.0992
0.02225,-0.073,-0.11205
0.04075,-0.06755,-0.14625
0.0479,-0.08955,-0.1345
0.03175,-0.1317,-0.11615
0.01515,-0.1329,-0.08065
0.0003667,-0.0662667,-0.065
-0.01125,-0.0551,-0.0668
-0.0242,-0.0524,-0.0941
-0.0477,-0.0544333,-0.0757
-0.07655,-0.0491,-0.03435
-0.08785,-0.0232,-0.04015
-0.05125,-0.0732,-0.05965
-0.0279,-0.1159,-0.0817
-0.0024,-0.1325,-0.1083
-0.001,-0.1430333,-0.0978
0.0226,-0.1072667,-0.0738
0.03,-0.0601,-0.0728
0.0244667,-0.0646,-0.0925333
0.0471,-0.12295,-0.06245
0.039,-0.16035,-0.13435
0.04215,-0.19595,-0.0817
0.0328,-0.13555,-0.08945
-0.0001,-0.04055,-0.07205
-0.0142,-0.0197,-0.06775
-0.0277,-0.05925,-0.0523
-0.02645,-0.07185,-0.0319
-0.04265,-0.1175,-0.0342
-0.0475,-0.13435,-0.09195
-0.0397,-0.10155,-0.10705
-0.02965,-0.0635,-0.12
-0.0042,-0.0523,-0.1082
0.0077,-0.0728,-0.07915
0.0181,-0.1102,-0.0647
0.0172667,-0.1220333,-0.0571333
0.0392,-0.09725,-0.03515
0.0742,-0.0271,-0.06285
0.076,-0.0153,-0.08425
0.09585,-0.04505,-0.1371
0.10935,-0.0857,-0.1636
0.12745,-0.08425,-0.1651
0.098,-0.085,-0.15945
0.12255,-0.123,-0.1386
0.09795,-0.13125,-0.14145
-0.08905,-0.05295,-0.1085
-0.27295,0.01315,-0.0084
-0.35275,0.01785,0.07985
-0.37285,-0.07735,0.1193
-0.3467,-0.1472,-0.01615
-0.2536,-0.154,-0.0625
-0.1065,-0.12665,-0.10625
0.0663,-0.1288,-0.1148
0.1654,-0.15595,-0.04665
0.2531333,-0.1000667,-0.0303667
0.2116,-0.0263,-0.0491
0.16315,0.0275,-0.1298
0.1171333,0.1227667,-0.2344
0.062,0.04755,-0.21585
0.0126,-0.0654,-0.145
-0.03005,-0.1346,-0.0929
-0.0428,-0.2346,0.0057
-0.0098,-0.2576,0.0054667
0.06365,-0.28045,0.0172
0.04765,-0.2354,0.0602
0.0107,-0.2074,0.0991
-0.0716,-0.1339333,0.0763
-0.1247,-0.06175,-0.00695
-0.1207,-0.0769,-0.0927
-0.01595,-0.12755,-0.1549
0.0787,-0.1365,-0.2101
0.1305,-0.0982333,-0.2383333
0.17945,-0.05705,-0.24255
0.15595,-0.04335,-0.20165
0.1123,-0.0236,-0.12835
0.07275,-0.05205,-0.04415
-0.0156,-0.07365,0.0132
-0.1066,-0.0949,0.0193
-0.18935,-0.11295,0.04635
-0.2168,-0.1236,0.0005
-0.1945,-0.1542,-0.0041
-0.11875,-0.16085,-0.0523
-0.1077,-0.1147,-0.12065
-0.0957,-0.0622,-0.183
-0.0546,-0.0344,-0.2284
-0.0132667,0.0028667,-0.2603667
0.05355,0.0383,-0.2521
