accx,accy,accz
-0.0713333,-0.2338333,0.0154667
-0.0197,-0.15425,-0.11995
0.11675,-0.1257,-0.2334
0.1666,-0.16985,-0.17535
0.03425,-0.2312,-0.18885
-0.0502,-0.19055,-0.22545
0.02695,-0.14855,-0.1814
0.04285,-0.1762,-0.01225
-0.0555,-0.1914,0.08925
-0.0906,-0.1873,0.0012
-0.0712,-0.19095,-0.0877
-0.04785,-0.2058,-0.1523
-0.0436,-0.18495,-0.10605
-0.0213,-0.2057,0.001
0.0336,-0.2624,0.0766
0.09095,-0.24425,0.02085
0.0363,-0.2188,-0.04525
-0.09975,-0.13485,-0.02105
-0.17865,-0.0991,0.0398
-0.056,-0.2401,0.1177333
0.1129,-0.3117,0.1158
0.1276667,-0.2160333,-0.0336333
-0.02235,-0.16825,-0.1418
-0.1154,-0.1501,-0.1981
-0.0683,-0.1578667,-0.1194
0.08295,-0.1662,0.0688
0.1313,-0.2212,0.0364
0.0819,-0.2764333,0.0499667
0.0243,-0.2464,0.0197
-0.0315667,-0.1503667,-0.0323667
-0.03135,-0.1367,-0.1346
-0.0525,-0.1662,-0.1216
-0.0831667,-0.2197,-0.0297
-0.0472,-0.28015,0.0919
0.03635,-0.2497,0.0815
0.09835,-0.13665,-0.0004
0.1105,-0.0598,-0.0684
0.0705667,-0.1178333,-0.0403
0.073,-0.258,0.06175
0.0613,-0.31425,0.0615
-0.01595,-0.22375,-0.0054
-0.15395,-0.1714,-0.0278
-0.24145,-0.10825,0.0095
-0.2258,-0.13685,-0.0298
-0.1642,-0.2277,0.06895
-0.01475,-0.2154,0.01495
0.15,-0.1713,-0.12035
0.1625,-0.1825,-0.2404
0.1093667,-0.1428,-0.3495667
0.05295,-0.07595,-0.3975
0.00895,-0.06255,-0.35705
-0.0148,-0.08225,-0.27955
0.0018,-0.1065,-0.1924
0.0227,-0.1876333,0.0456667
0.01005,-0.29095,0.2174
-0.0268,-0.3139,0.122
-0.0979,-0.2007,0.0832
-0.1387,-0.1389,0.0307
-0.1195333,-0.1607333,-0.0452333
0.07585,-0.2109,-0.0131
0.1855,-0.26665,0.0254
0.2011,-0.25605,0.02945
0.154,-0.2322,-0.071
0.06705,-0.236,-0.1224
0.09525,-0.2401,-0.16615
0.1576,-0.2025,-0.1952
0.21845,-0.17535,-0.08975
0.17655,-0.1648,-0.00785
0.06575,-0.21095,0.1267
-0.07135,-0.15455,0.09605
-0.09255,-0.1156,-0.04905
-0.0692,-0.2068,0.0814
-0.0376,-0.29475,0.03155
-0.0052,-0.2631,-0.0404667
-0.029,-0.1586,-0.087
-0.0495667,-0.1443667,-0.0334667
-0.00535,-0.1939,0.10625
0.0408,-0.2152,0.1121
0.08955,-0.23965,0.0465
0.0613333,-0.2038333,-0.0606667
-0.0137,-0.16345,-0.13375
-0.01015,-0.18665,-0.15185
0.058,-0.2151,-0.1973
0.0517667,-0.2082,-0.1841667
-0.00815,-0.14145,-0.15095
0.01775,-0.11095,-0.18615
0.0172,-0.1364,-0.1549
-0.0144333,-0.1613333,-0.0623333
-0.00145,-0.1949,0.0052
0.0022,-0.1764,-0.005
-0.0266,-0.15505,-0.05215
-0.0393,-0.1787,-0.1527
0.0069,-0.2048,-0.1311
-0.051325,-0.208375,-0.08915
0.0354,-0.11935,-0.12285
0.0871,-0.1995,-0.0569
0.0714,-0.24535,-0.13215
0.03785,-0.20155,-0.1315
0.03335,-0.1531,-0.01775
0.0071,-0.1843,-0.0294
0.02955,-0.20025,-0.09135
0.0521,-0.1962,-0.14215
0.021,-0.2056,-0.0993
-0.0329333,-0.2041333,-0.0439667
-0.04415,-0.1791,-0.0089
-0.0489,-0.1258,0.00155
-0.0171,-0.161,-0.0487
0.02125,-0.21935,-0.0794
-0.00785,-0.2039,-0.06665
-0.0887,-0.1708,-0.0634
-0.09705,-0.16905,-0.06455
-0.0484,-0.18765,-0.0667
-0.0336,-0.18965,-0.07825
-0.0445,-0.20825,-0.0807
-0.02785,-0.2046,-0.09145
-0.03125,-0.18525,-0.12005
-0.0409,-0.2008,-0.03495
-0.0799,-0.1842,-0.03065
-0.0021,-0.15315,-0.0524
0.08785,-0.18645,0.0646
0.1283,-0.1704,0.0032
0.07705,-0.16775,-0.068
0.01355,-0.16125,-0.02775
-0.0443667,-0.223,-0.0454
-0.0257,-0.19865,-0.10075
0.0058,-0.1664,-0.1413
0.0269667,-0.1590667,-0.1308
-0.0056,-0.1805,-0.1148
-0.08785,-0.18285,-0.10635
-0.094,-0.18295,-0.01595
0.0027,-0.2083333,-0.0222667
-0.0015,-0.19275,-0.04605
-0.0235,-0.1778,-0.0967
0.0241,-0.1877333,-0.1280667
-0.02915,-0.1687,-0.0117
-0.04665,-0.18255,-0.03085
-0.00095,-0.19415,-0.1016
0.0125,-0.2312,-0.0999
0.0089333,-0.2053,-0.0804
0.0435,-0.16515,-0.046
0.04005,-0.17405,0.0563
-0.00605,-0.18015,-0.03355
-0.00925,-0.1954,0.07815
0.0261,-0.20215,0.0026
0.08125,-0.19355,-0.15625
0.00475,-0.19075,-0.08825
-0.068,-0.1861,-0.06045
-0.01445,-0.1859,-0.10855
0.0465,-0.2011,-0.0441
-0.0275,-0.2224,-0.01495
-0.06625,-0.2082,0.00525
-0.05695,-0.19465,-0.08335
-0.0268,-0.1935,-0.0647
-0.05115,-0.189,0.00955
0.0276,-0.19325,-0.02635
0.0489,-0.15355,-0.00655
-0.03505,-0.17805,-0.00375
-0.0507,-0.2167,-0.04605
0.0074,-0.20965,-0.05675
0.0344,-0.1683,-0.05175
0.0239,-0.1583,-0.06835
0.05955,-0.15425,-0.1046
0.07635,-0.14055,-0.1164
0.04805,-0.162,-0.05685
-0.03145,-0.20985,0.02825
-0.0757,-0.223,-0.11885
0.01875,-0.22815,-0.0579
0.07585,-0.2295,0.0143
0.0627,-0.20225,-0.0879
-0.0322,-0.171,-0.1154
-0.0383,-0.13055,-0.1182
0.0828,-0.17945,-0.07595
0.10465,-0.22535,-0.06675
0.0093667,-0.21,-0.0907667
-0.0557,-0.1908,-0.136
-0.05805,-0.1636,-0.09125
-0.0762,-0.1722,0.03645
-0.0487,-0.20845,0.02995
0.0073,-0.2115,-0.0096
0.0123,-0.18555,-0.0319
-0.01625,-0.1559,-0.0834
-0.0006,-0.1843,-0.0852
-0.0181,-0.2144,-0.0379
-0.0419,-0.2069,0.0144
0.0165,-0.17,-0.0365
0.03365,-0.18705,-0.06255
-0.04955,-0.2083,-0.0829
-0.0071,-0.1997,-0.09005
0.04545,-0.1993,-0.0209
0.06305,-0.1642,-0.0791
0.02945,-0.19075,-0.0138
-0.03395,-0.2145,-0.02835
-0.03335,-0.17755,-0.1147
-0.00895,-0.1476,-0.0689
-0.01535,-0.20285,0.00145
0.0177,-0.1966,0.00415
0.05695,-0.17965,-0.07465
0.0155,-0.16,-0.1283
0.0056667,-0.1855,-0.0864667
0.0124,-0.20865,-0.0291
-0.00615,-0.1967,-0.00215
-0.0222,-0.1544,-0.054
0.0252,-0.1668,-0.1119
0.06995,-0.195,-0.09375
0.0088667,-0.2033667,0.0063667
-0.0316,-0.1904,-0.01745
-0.00435,-0.183,-0.07545
0.0205,-0.17545,-0.07495
0.01895,-0.1689,-0.0859
0.018,-0.1783,-0.0674
-0.00465,-0.2106,-0.04475
-0.0261,-0.21895,-0.00165
-0.0835,-0.1803,-0.067
-0.0423,-0.191,-0.05745
-0.03745,-0.2013,-0.0102
-0.0204,-0.1357,-0.0968
-0.0153,-0.1589,-0.07155
-0.0381,-0.21445,-0.1193
-0.00355,-0.1912,-0.0502
0.01705,-0.2009,0.0298
-0.03525,-0.18585,0.0035
-0.03365,-0.17975,0.0135
0.039,-0.15495,-0.0408
0.01765,-0.1717,-0.0881
0.00155,-0.2043,-0.09885
-0.0093333,-0.2000333,-0.0887
0.0261,-0.1856,-0.0554
0.0110667,-0.1722,-0.0694333
-0.0123,-0.1617,-0.091
-0.0279333,-0.1744333,-0.0771667
-0.01835,-0.1892,-0.045
-0.0049,-0.1846,-0.0559
0.0055667,-0.1806333,-0.0627333
0.0427,-0.18,-0.0956
0.024,-0.1723667,-0.0805
-0.04745,-0.2019,-0.07335
-0.06025,-0.20685,-0.1038
-0.0152,-0.1861,-0.0999
-0.008,-0.1501667,-0.0626
0.0188,-0.1497,-0.0478
0.06085,-0.2287,0.01875
0.03415,-0.18895,-0.08185
0.0408,-0.1277,-0.1386
0.0255,-0.18305,-0.1007
0.04825,-0.2094,-0.1404
0.0557,-0.1739,-0.1087
-0.00375,-0.1494,-0.0978
-0.0446,-0.125,-0.167
-0.0426333,-0.1508333,-0.1919333
0.00325,-0.15335,-0.19455
-0.01005,-0.11245,-0.26465
-0.1129,-0.0925,-0.23975
-0.124,-0.0996,-0.1759
-0.1308667,-0.1369,-0.0797333
-0.1013,-0.26215,-0.0518
0.01645,-0.3095,-0.0808
0.1026,-0.23485,-0.18825
0.08825,-0.13775,-0.29435
0.0601,-0.06355,-0.29345
0.0785,-0.09535,-0.19825
0.078,-0.21285,-0.09665
0.0692,-0.386,-0.16495
0.0686,-0.39345,-0.2596
0.0389,-0.31,-0.25525
-0.0035,-0.1306,-0.1646
-0.013,-0.0822,0.0242
-0.02965,-0.1991,0.24505
-0.01745,-0.31855,0.2456
0.0174,-0.28545,0.0452
0.0754,-0.21225,-0.0814
0.10145,-0.06145,-0.11345
0.0356,-0.03185,0.00215
-0.072,-0.1515,-0.13455
-0.02645,-0.2843,-0.30685
0.10425,-0.26875,-0.2904
0.1586,-0.2542,-0.30235
-0.0256333,-0.2732,-0.2803667
-0.264,-0.3655,-0.3323
-0.3,-0.42715,-0.37835
-0.0635333,-0.3110333,-0.4665333
0.0611,-0.07365,-0.1581
0.3201,0.0711,0.14925
0.9343,-0.32935,-0.02215
0.9204,-0.93395,-0.0042
0.1011,-1.13845,0.5976
-0.85655,-0.64685,0.6178
-1.4875,0.3584,0.30795
-1.1094,0.9037,0.3825
-0.34125,0.59375,0.2671
0.08395,-0.33825,-0.08035
0.0669,-0.75645,-0.09675
-0.3176,-1.0277,-0.0282
-0.4717,-1.0115,0.004
-0.1498667,-0.8089667,-0.1692333
0.35825,-0.5449,-0.3704
0.4262,-0.58235,-0.42875
0.10335,-0.8909,-0.3539
-0.1541,-1.2343,-0.49375
-0.26455,-1.24255,-0.63735
-0.2578,-0.9157,-0.3558
-0.08955,-0.7769,-0.3062
0.04785,-1.2628,-0.3826
0.19845,-1.4876,-0.31805
0.49445,-1.09685,-0.3541
0.6936,-0.04275,-0.18045
1.00455,0.7882,0.0871
0.8305,0.49195,0.2907
0.0736,-0.25825,0.11515
-0.4254,-0.1749,-0.2621
-0.33995,-0.0468,-0.2507
0.01805,-0.76615,0.13405
0.05605,-1.98615,0.4927
-0.2405,-2.50015,0.29815
-0.48645,-1.971,-0.10485
-0.3242,-1.0338,-0.3681
0.05545,-0.37305,-0.56895
0.6502,0.0292,-0.59745
0.82455,-0.0108,-0.1821
0.1128,-0.4848,0.20345
-0.59955,-0.87555,0.20395
-0.5798,-1.00835,0.3342
-0.19215,-1.1981,0.4348
0.11925,-1.20375,0.5454
-0.1802,-0.70855,0.44225
-0.45265,-0.10415,0.0658
-0.6003,0.2181,-0.22695
-1.0041667,0.5101,-0.2071333
-0.9562,-0.0954,-0.1283
-0.80715,-0.77385,0.03815
-0.4076,-0.9169333,-0.3437
0.43435,-0.5928,-0.7525
0.7777,0.31615,-0.5851
0.7592,1.0791,-0.3326
0.7039,1.6188333,-0.3094
0.21355,1.72275,-0.43135
-0.05765,1.6254,-0.32015
0.22245,1.4999,0.00305
0.6622,1.2923,0.4676
0.4094,1.0826667,0.6764
-0.29945,1.18035,-0.0255
-0.2112,1.52295,-0.52915
0.3975,1.6783,-0.471
0.8294,1.4573,-0.4357
0.5155,0.83625,-0.63865
-0.15605,0.49395,-0.59975
-0.7987,0.36495,-0.40755
-0.9784,0.28985,-0.22785
-0.6563,0.3401,-0.07125
-0.1273,0.3498,0.2679
0.3458,0.487,0.55405
0.49245,0.6892,0.38245
0.27115,0.50205,0.01145
0.1219,-0.08475,-0.0891
-0.0558,-0.86235,-0.0221
-0.3929,-1.2444,0.1814
-0.493,-1.05905,0.3898
-0.2123,-0.6556,0.2875
-0.00335,-0.29275,0.2307
0.0737,-0.08745,0.2019
0.1283,-0.16585,0.3721
0.33225,-0.4324,0.69045
0.70665,-0.74385,0.92645
0.8507,-0.88735,0.84245
0.5863,-0.79715,0.532
0.16545,-0.6842,0.30545
-0.0511,-0.63295,0.30255
0.0454,-0.52245,0.3982
0.1231,-0.4265,0.3601
-0.03975,-0.51075,0.2191
-0.2929,-0.47125,0.08195
-0.2625,-0.39495,0.08415
-0.14335,-0.3794,0.21795
-0.05195,-0.40165,0.36705
-0.1345,-0.2205,0.3583
-0.25655,-0.29055,0.21055
-0.3278,-0.36755,0.2147
-0.2004,-0.2374667,0.2523
0.05515,-0.1434,0.80955
0.2666,-0.1631,0.8245
0.16595,-0.531,1.00885
0.1133333,-1.2347,1.7116333
0.088,-1.3926,1.40675
-0.231,-1.0688,0.4068
-0.52885,-0.39505,-1.0398
-0.5549,0.6135,-1.9014
-0.253,0.94865,-1.42085
0.1097,0.701,-0.8996
0.3525,0.428,-0.6844
0.3774333,0.1454333,-0.3965
0.08355,-0.00635,-0.07465
-0.0968,-0.077,0.0761
-0.0929,-0.24995,0.1127
-0.074,-0.31735,0.00425
-0.0047,-0.2365,-0.1837
0.04325,-0.0903,-0.28625
0.1064,0.04655,-0.18095
0.13195,0.09235,-0.15495
0.0534,0.14755,-0.11065
-0.00675,0.02975,-0.0434
-0.14315,-0.1297,-0.0666
-0.22255,-0.18225,-0.14485
-0.2264,-0.14315,-0.18985
-0.11615,-0.0932,-0.141
-0.05575,-0.08605,-0.1148
-0.0524,-0.0697,-0.06685
-0.0796,-0.03545,-0.0444
-0.02925,-0.0255,-0.0848
0.023,0.05965,-0.31525
-0.0011,0.0701,-0.4203
0.0699333,-0.0942,-0.1472333
-0.15435,-0.0633,0.0352
-0.0588,-0.13725,-0.1212
0.1954,0.04715,-0.28565
0.3207,0.2334,-0.2642
0.4074,0.301,-0.2323
0.52195,0.035,-0.230975
0.24425,-0.3089,-0.0242
0.08175,-0.29915,0.0808
0.01485,-0.1645,0.0169
-0.02505,-0.09505,-0.1857
-0.19725,0.04885,-0.3045
-0.37545,0.07275,-0.19335
-0.37455,-0.02735,0.01675
-0.22495,-0.1827,0.1504
-0.1539,-0.2572,0.0666
-0.1542,-0.2205,-0.0952
-0.08275,-0.14455,-0.1664
0.01295,-0.1061,-0.0961
0.0841,-0.1049,-0.0413
0.1880333,-0.0664667,-0.0938667
0.1866,0.1209667,-0.2559667
0.1013,0.0974,-0.2624
0.0779,-0.0072667,-0.2392667
0.11555,-0.145275,-0.03585
0.0721,-0.07915,-0.08705
0.1032,-0.0697,-0.00565
0.0715,-0.08,-0.1252
-0.0049,-0.0792,-0.1161
-0.018225,-0.173775,-0.085725
-0.0776,-0.1632,-0.0189
-0.133,-0.13135,-0.0093
-0.154,-0.07685,0.0336
-0.0822,-0.0261,-0.0029
0.01275,-0.0191,-0.02185
0.08295,-0.07955,-0.11145
0.0017667,-0.1264,-0.1914
-0.06695,-0.1616,-0.20405
-0.0706,-0.0714,-0.1895
-0.0601,-0.0006,-0.1978
0.0334,0.0751667,-0.1912667
0.1319,-0.0564667,-0.0885333
0.02925,-0.1463,0.00505
-0.0793,-0.14225,0.0205
-0.08015,-0.1576,-0.0284
0.02315,-0.14155,-0.0353
0.003,-0.12225,-0.07335
-0.0157,-0.102,-0.1144
-0.015,-0.0789333,-0.1089667
-0.0477,-0.00345,-0.2431
0.01065,-0.017,-0.1207
0.0553,-0.07625,-0.06205
0.0438,-0.1069,-0.1832
0.0408667,-0.1207667,-0.0737
0.00615,-0.1375,-0.0809
-0.0047,-0.1338,-0.06525
0.0207,-0.0964,-0.1397
0.0599,-0.0892,-0.11765
0.0417,-0.07455,-0.06945
0.0248,-0.07865,-0.05805
0.0162,-0.1083,-0.1012
-0.01305,-0.1477,-0.0723
-0.0219,-0.168,-0.0796
-0.0360333,-0.1217,-0.1772333
-0.0389,-0.09205,-0.1394
0.0114,-0.1001,-0.0753
0.00105,-0.12295,-0.0425
-0.03435,-0.0797,-0.0642
-0.0547,-0.0935,-0.10475
-0.0237,-0.0695,-0.1615
0.0344667,-0.1161667,-0.1317333
0.0232,-0.0968,-0.0783
0.02915,-0.0964,-0.0566
0.01865,-0.10885,-0.0441
-0.0148,-0.1338333,-0.0829333
-0.0096,-0.11595,-0.09915
-0.0599,-0.0913,-0.1514
-0.01295,-0.0959,-0.0461
0.0484333,-0.0560667,-0.1102
0.0846,-0.03985,-0.0786
0.0974,-0.0889,-0.0085
0.0131,-0.11335,-0.09255
0.01125,-0.2303,-0.0589
0.028,-0.1083,-0.1116
0.05615,-0.09235,-0.0676
0.0108,-0.0999,-0.0238
-0.0461,-0.0932,-0.0071
-0.0612,-0.0794,-0.0162
-0.069625,-0.106475,-0.072825
-0.0442,-0.1298,-0.0577
-0.0425,-0.07605,-0.09975
-0.01805,-0.0616,-0.0743
-0.0054,-0.0406,-0.0707
0.0131333,-0.0905333,-0.0630333
0.0256,-0.15555,-0.079
0.04035,-0.10955,-0.0831
0.05465,-0.07465,-0.10765
0.0404,-0.1024,-0.09935
0.0195,-0.10465,-0.09795
0.01395,-0.0844,-0.09825
0.00835,-0.0885,-0.07615
0.0071,-0.0851,-0.0909
-0.0152,-0.0832,-0.1091
-0.0390333,-0.1084667,-0.0761333
-0.0441,-0.0855,-0.1485
0.006,-0.13735,-0.0015
-0.0005,-0.11595,-0.0892
0.00975,-0.06925,-0.10755
-0.00975,-0.14875,-0.1074
-0.00215,-0.1675,-0.05905
0.01215,-0.08745,-0.1682
0.0317,-0.0617,-0.14865
-0.01335,-0.05015,-0.09235
-0.04725,-0.08175,-0.0337
-0.0223,-0.1356,-0.0681
0.0003,-0.1481,-0.08225
0.01435,-0.1116,-0.03095
0.0042,-0.09965,-0.1103
0.00265,-0.078,-0.0967
0.0104667,-0.0925667,-0.0748667
0.0328,-0.12845,-0.0483
0.0477,-0.1075,-0.0709
0.0168333,-0.0803667,-0.1057333
-0.00735,-0.10315,-0.06745
-0.02805,-0.1129,-0.06335
-0.00175,-0.1009,-0.11505
0.0088,-0.0749,-0.11775
0.0206,-0.0824,-0.0871
0.0053667,-0.0873,-0.0670333
-0.01705,-0.101,-0.0788
-0.0138,-0.0825,-0.171
-0.0418,-0.0817,-0.1956
0.018375,-0.124175,-0.02455
-0.03485,-0.06995,-0.1842
0.02105,-0.06395,-0.061
-0.0269,-0.13385,-0.10935
-0.01565,-0.17205,-0.05735
0.0374,-0.1044,-0.1613
0.0189333,-0.0779,-0.1268
-0.08115,-0.1252,0.0261
-0.13185,-0.09785,-0.0406
-0.03185,-0.09275,-0.1313
0.0457,-0.0691,-0.1952
0.0633,-0.0946667,-0.1121
0.0566,-0.0965,-0.0836
0.0838,-0.08665,-0.0577
0.0979,-0.0871,-0.0611
0.0579333,-0.1151667,-0.0923
0.00225,-0.09585,-0.08195
-0.0109,-0.0816,-0.1052
0.00595,-0.09825,-0.08845
0.0039,-0.0953,-0.0685
-0.0518333,-0.0927667,-0.0615667
-0.06845,-0.08105,-0.11185
-0.02165,-0.0979,-0.121
-0.00945,-0.1071,-0.0916
-0.0179,-0.1077,-0.0708
-0.0354333,-0.1196667,-0.049
-0.05315,-0.1051,-0.1075
-0.0006,-0.143,0.02765
0.02255,-0.1239,-0.1779
0.0172,-0.0331,-0.1613
0.0709667,-0.0127,-0.0155
0.0349,-0.14385,-0.05055
-0.0018,-0.1574,-0.11375
-0.02745,-0.0923,-0.1962
-0.0004,-0.0546333,-0.1145667
0.0029,-0.0543,-0.0817
-0.0400333,-0.108,-0.0415333
-0.0821,-0.1465,-0.0461
-0.0301,-0.16455,-0.0546
0.04725,-0.1061,-0.09315
0.08415,-0.07525,-0.12585
0.0321,-0.07145,-0.11745
-0.0063,-0.0818,-0.06755
0.0472,-0.12745,-0.03495
0.01875,-0.10985,-0.07965
-0.0158667,-0.0923333,-0.0825333
-0.0534,-0.0908,-0.0498
-0.02005,-0.08485,-0.0841
0.03855,-0.10675,-0.1471
0.0209,-0.1103,-0.1503
-0.0044,-0.1119,-0.0672
-0.0742,-0.092,-0.0169
-0.05525,-0.09105,-0.06325
-0.02395,-0.0651,-0.16025
0.0287,-0.1027,-0.0468
0.0295,-0.1073,-0.0686
-0.00135,-0.0662,-0.07545
-0.00315,-0.07585,-0.05525
-0.05105,-0.14315,-0.07975
5e-05,-0.14015,-0.0936
0.0424,-0.0822,-0.2234
0.051,-0.0681667,-0.2313333
0.01675,-0.1103,-0.0172
-0.0423,-0.11535,0.05705
-0.0331,-0.1056,-0.02935
0.0006,-0.1161,-0.0666
0.0370667,-0.1086333,-0.1115333
0.0334,-0.0809,-0.12
-0.0034,-0.06275,-0.04845
-0.0301,-0.0948,-0.0508
-0.0163,-0.1166,-0.0364
-0.0047,-0.1222333,-0.0667333
0.02235,-0.08155,-0.12775
0.001,-0.0829,-0.1036
0.01755,-0.09305,-0.05405
0.0006,-0.11835,-0.07115
-0.00705,-0.1127,-0.09205
-0.01405,-0.09645,-0.11025
0.01655,-0.06405,-0.0973
-0.01225,-0.103,-0.08745
-0.027025,-0.12385,-0.049525
-0.00985,-0.06145,-0.2011
0.00015,-0.03605,-0.1032
-0.0037,-0.1073,-0.0251
0.01166,-0.13568,-0.0721
0.0333,-0.0682,-0.1763
0.00065,-0.0724,-0.13925
-0.0358667,-0.0743333,-0.0487
-0.0358,-0.1163,-0.0382
-0.0028,-0.14685,-0.05995
0.02125,-0.14315,-0.0993
0.0182333,-0.1013667,-0.1314
0.0024,-0.0701,-0.1292
-0.0092667,-0.0772667,-0.0768667
0.01795,-0.1213,-0.06475
0.03145,-0.11435,-0.0951
0.00245,-0.0953,-0.13265
-0.00905,-0.11115,-0.11735
0.00745,-0.11135,-0.0949
5e-05,-0.12795,-0.0861
-0.0078,-0.1211,-0.1436
0.01215,-0.1151,-0.13135
0.0222,-0.0864,-0.1321
-0.0195667,-0.0898,-0.1066333
-0.0349,-0.08155,-0.11645
0.04215,-0.147,-0.00835
-0.0344,-0.07965,-0.1918
0.00555,-0.0876,-0.05505
0.0279,-0.1465,0.0188
0.0021333,-0.1550667,-0.0578333
0.0234,-0.11275,-0.079
0.01265,-0.0725,-0.1861
0.00395,-0.1049,-0.12935
-0.00715,-0.1014,-0.02705
-0.02125,-0.10515,-0.02355
-0.0332,-0.1441,-0.0455
0.0109,-0.13955,-0.0838
0.0041,-0.1063,-0.1327
-0.0005,-0.0844,-0.1224
-0.0179333,-0.0808333,-0.0839333
0.00495,-0.1289,-0.0513
0.0312,-0.13055,-0.0546
0.01295,-0.0972,-0.09455
-0.00265,-0.09325,-0.1064
-0.00265,-0.11645,-0.0939
0.00825,-0.1174,-0.06985
-0.00555,-0.0982,-0.0652
-0.0049,-0.1076,-0.10335
0.0092,-0.0944,-0.1308
-0.0107,-0.1108333,-0.0914
-0.042,-0.0796,-0.11175
0.0304,-0.14685,0.02365
-0.0079,-0.104,-0.1164
-0.0178,-0.0416,-0.17705
0.0081,-0.1182667,-0.0276667
-0.0095,-0.17,-0.0684
-0.01285,-0.09935,-0.12915
0.0026,-0.0428,-0.1785
0.0130667,-0.0856333,-0.1038667
-0.00165,-0.0998,-0.02755
-0.0192,-0.1222,-0.05915
-0.0196,-0.1469,-0.1033
0.0072,-0.1269667,-0.0938667
0.0253,-0.0848,-0.1212
-0.0140333,-0.0660667,-0.1182
-0.03755,-0.09925,-0.065
0.0278,-0.1453,-0.03
0.0365,-0.1356,-0.02635
0.0057,-0.10055,-0.08585
-0.0356,-0.0959,-0.12625
-0.02735,-0.09755,-0.10995
-0.00895,-0.1124,-0.09725
-0.01195,-0.1165,-0.1108
0.01365,-0.10925,-0.1012
0.017,-0.0962,-0.08715
0.0032,-0.10315,-0.04645
-0.01415,-0.09175,-0.13465
0.01695,-0.114,-0.07165
0.0652,-0.1543,0.011
-0.0230667,-0.0814,-0.1631667
0.00835,-0.08795,0.0343
-0.0218,-0.1541,-0.05125
-0.0313,-0.14995,-0.0502
0.00525,-0.08845,-0.1942
-0.01015,-0.0782,-0.15775
-0.0213,-0.0974,-0.07075
-0.01215,-0.1068,-0.00985
-0.0068,-0.12245,-0.064
-0.0021,-0.12695,-0.10345
0.01925,-0.1163,-0.10655
0.0071,-0.0773,-0.14135
0.0029,-0.0782,-0.0849
-0.01905,-0.1084,-0.04765
0.003,-0.13015,-0.0478
0.02995,-0.1322,-0.0524
0.0108,-0.1014,-0.1125
-0.017,-0.0906,-0.1511
-0.02175,-0.09205,-0.1191
0.0019,-0.1004,-0.1001
0.0271,-0.1079,-0.1021
-0.00915,-0.10185,-0.0885
-0.0104,-0.0943,-0.1111
-0.0107,-0.1091333,-0.0866333
-0.0204,-0.117,-0.1005
-0.0021333,-0.1115667,-0.0853
0.03225,-0.128,-0.0219
-0.0161,-0.067,-0.2223
-0.0057,-0.0575,-0.1252333
-0.0199,-0.0918,-0.0989
-0.0047,-0.1788,-0.1020333
0.0167,-0.1348,-0.1103
-0.0079,-0.11465,-0.06135
-0.0254,-0.0757,-0.0317
-0.0120333,-0.0847667,-0.0183
0.01755,-0.1133,-0.053
-0.0115,-0.10815,-0.09015
0.00075,-0.10875,-0.0526
0.0008,-0.0997,-0.08015
0.0241,-0.07725,-0.11255
-0.00175,-0.0861,-0.07245
-0.0083,-0.10345,-0.05155
-0.00185,-0.12745,-0.03685
0.0196,-0.11725,-0.0653
-0.00655,-0.09285,-0.1077
-0.01205,-0.0961,-0.083
-0.0154,-0.1082,-0.06785
-0.02625,-0.1095,-0.10265
-0.01675,-0.08135,-0.09475
0.01665,-0.0969,-0.08275
0.03415,-0.092,-0.0959
-0.0158,-0.0996,-0.09155
-0.0085,-0.1234,-0.0632
-0.01565,-0.07425,-0.1078
-0.0213,-0.0613,-0.1389
0.0442,-0.1144,0.0099667
-0.017,-0.07425,-0.16995
0.009,-0.05945,-0.0515
0.00325,-0.1161,-0.0689
-0.0183,-0.16465,-0.04305
-0.0484,-0.1371,-0.1087
0.0215,-0.0825333,-0.1207667
-0.005,-0.07325,-0.08875
-0.02005,-0.0707,-0.052
-0.03335,-0.0971,-0.0545
-0.01815,-0.1373,-0.0899
0.01695,-0.1295,-0.0807
0.01835,-0.09515,-0.12945
0.0202,-0.0719,-0.08265
-0.0148,-0.07745,-0.06145
-0.0296,-0.0919,-0.0644
-0.0028667,-0.1141667,-0.0487
0.04175,-0.1139,-0.06095
0.01265,-0.0863,-0.11505
-0.0069,-0.0887,-0.1205
-0.0174,-0.1222,-0.0627
-0.0125,-0.1035,-0.07735
0.00465,-0.1008,-0.10095
0.0154,-0.10185,-0.069
-0.01035,-0.1049,-0.08375
-0.01095,-0.09475,-0.09635
0.0044,-0.09145,-0.086
-0.0039,-0.1019333,-0.1103
-0.00165,-0.0983,-0.1037
0.0252,-0.1429,-0.0196
-0.0115,-0.08895,-0.19315
-0.0131667,-0.0839333,-0.1548333
0.01045,-0.16015,-0.04265
0.0035,-0.1677,0.026
0.0058,-0.0903333,-0.0693333
-0.0095,-0.0255,-0.1763
-0.0055333,-0.0956333,-0.1224
-0.001,-0.1262,-0.00675
-0.0091,-0.1329,0.03995
0.0013,-0.11635,-0.02805
0.013,-0.11855,-0.0982
0.00315,-0.09975,-0.15995
0.0086,-0.08365,-0.12985
-0.0095,-0.08985,-0.0618
-0.01105,-0.1257,-0.06475
0.027225,-0.106575,-0.064075
-0.00635,-0.0771,-0.1303
-0.0013,-0.10445,-0.07615
0.01365,-0.09165,-0.0755
5e-05,-0.0949,-0.1264
-0.0155,-0.0865,-0.1058
-0.0178,-0.08815,-0.08695
-0.0234333,-0.1047667,-0.1031
-0.03265,-0.1147,-0.07605
-0.00585,-0.10585,-0.130025
0.01005,-0.1061,-0.0745
-0.01085,-0.11075,-0.14385
-0.0137,-0.10375,-0.0644
0.0044,-0.1198,-0.00025
0.0046,-0.1271,-0.1207
0.0283,-0.11775,-0.13525
0.01995,-0.07475,-0.20655
0.00785,-0.1114,-0.09815
0.0068,-0.1096,-0.04025
-0.00225,-0.1136,-0.07375
-0.00515,-0.1213,-0.1044
0.02885,-0.12275,-0.103
0.0164,-0.1077,-0.1007
-0.01635,-0.091425,-0.1136
-0.0227,-0.08605,-0.0734
-0.0263,-0.1354,-0.0042
0.0153,-0.1257,-0.02055
0.0207,-0.1294,-0.0833
0.005375,-0.1079,-0.119975
0.011,-0.10995,-0.0508
-0.001,-0.10095,-0.08095
-0.0071,-0.1117,-0.118
0.0063333,-0.0966667,-0.1519333
0.00045,-0.10735,-0.08265
-0.0383,-0.11595,0.0065
-0.03645,-0.12125,-0.0179
-0.0372,-0.1301,-0.0417
0.0062667,-0.0915,-0.1081
0.0483,-0.11105,-0.06905
-0.0076,-0.1139,-0.09175
-0.0246,-0.068,-0.15215
0.03085,-0.1185,0.04375
-0.01495,-0.1359,-0.05125
-0.002275,-0.101575,-0.144275
0.00635,-0.10235,-0.12765
-0.0066,-0.1277,-0.06295
-0.0079,-0.1159,-0.0364
-0.0211667,-0.1126333,-0.0805333
0.0038,-0.13145,-0.15385
0.01395,-0.1117,-0.13385
0.0094,-0.09345,-0.1423
0.00405,-0.0969,-0.14425
0.003575,-0.0968,-0.06195
0.00045,-0.1407,-0.03745
-0.0038,-0.1226,-0.09875
-0.0143,-0.0989,-0.15645
0.0034,-0.0986,-0.1434
0.0054,-0.1008,-0.1089667
-0.0303,-0.08745,-0.07795
-0.01125,-0.12275,-0.08675
-0.00305,-0.1313,-0.10105
0.02935,-0.13525,-0.06015
0.00185,-0.1151,-0.04015
-0.02855,-0.097,-0.07715
-0.04115,-0.1194,-0.08045
-0.0238,-0.0996,-0.1074
-0.02035,-0.09255,-0.08425
0.0179,-0.1338,0.03695
0.00955,-0.06995,-0.15205
0.0012,-0.0618,-0.0489
0.0019,-0.1178,-0.0676
0.01295,-0.16375,-0.07765
0.0406,-0.14075,-0.09105
0.0045,-0.1065,-0.1125
-0.0289,-0.0995,-0.06385
-0.0039,-0.0817,-0.03065
-0.0089,-0.06075,-0.0376
-0.0148,-0.0939333,-0.0742667
-0.0118,-0.1183,-0.04625
-0.0129,-0.12575,-0.0875
-0.0206,-0.3182,-0.1254
-0.0319,-0.2037,-0.1142
0.00415,0.01295,-0.038925
0.0002,-0.0895,-0.0242
-0.00185,-0.10965,-0.08295
0.0094,-0.10605,-0.11655
0.016,-0.0948,-0.0968
0.0049667,-0.0831,-0.0574667
-0.0158,-0.0794,-0.07365
-0.01545,-0.09975,-0.07425
-0.0129,-0.0974,-0.0713
-0.0124,-0.1861667,-0.0996333
-0.01715,-0.1121,-0.1159
0.0109,0.0345,-0.0532
0.0037,-0.0503,-0.02195
-0.01865,-0.1105,-0.028
-0.0149,-0.10835,-0.1149
0.0,-0.09405,-0.09615
0.0429,-0.1264,0.0659
0.0025,-0.0900333,-0.0687667
-0.02425,-0.03975,-0.072
-0.00945,-0.0972,-0.0671
-0.00965,-0.1509,-0.0586
-0.01315,-0.13,-0.10905
0.00965,-0.07385,-0.13665
0.003,-0.0615,-0.0691
0.00985,-0.0459,-0.0593
-0.01365,-0.05655,-0.05655
-0.0097,-0.1256,-0.0518
0.00405,-0.1373,-0.059
0.01675,-0.10555,-0.087
0.001275,-0.07,-0.096475
-0.02845,-0.08815,-0.0763
-0.01785,-0.10565,-0.03625
0.02595,-0.1091,-0.067
0.0114,-0.0993,-0.10765
-0.0132,-0.07825,-0.1289
-0.0316,-0.10025,-0.07435
-0.0182,-0.1111,-0.06135
-0.00165,-0.0921,-0.06085
-0.0054,-0.0887,-0.0854
-0.0005333,-0.0849333,-0.0932333
0.02055,-0.08735,-0.09685
0.006,-0.11205,-0.06385
0.0015,-0.0988,-0.0652333
-0.0045333,-0.0883667,-0.1018333
0.0082667,-0.0817667,-0.0839
-0.00795,-0.07905,-0.1325
0.0174,-0.1261,-0.0227
0.0367,-0.1339,-0.0428
-0.00405,-0.076,-0.1061
0.01265,-0.13165,-0.015
-0.01295,-0.1392,-0.05355
-0.00595,-0.10085,-0.09655
0.00735,-0.08615,-0.18125
-0.02565,-0.09035,-0.18005
-0.04595,-0.08225,-0.0814
-0.01135,-0.09925,-0.03435
-0.0088,-0.1085,-0.0311
0.0263667,-0.1301,-0.1071333
0.0466,-0.1129,-0.1116
0.0184,-0.091,-0.1465333
-0.0014,-0.0837,-0.0828
-0.0103,-0.08625,-0.048
0.0049,-0.1299,-0.078
0.0288667,-0.1199,-0.0612
-0.02695,-0.10625,-0.0867
-0.0286,-0.10415,-0.09375
0.01165,-0.1075,-0.0782
0.0406,-0.0955,-0.0861
0.0126667,-0.0963,-0.0891333
-0.0198,-0.104,-0.10615
-0.01565,-0.1102,-0.09805
-0.0394,-0.145,-0.1186
-0.0284,-0.1207,-0.0993
-0.0082,-0.1016667,-0.0978333
0.0068,-0.10525,-0.13015
-0.01215,-0.0977,-0.17475
-0.02555,-0.0857,-0.1525
-0.0063,-0.0945,-0.1068
-0.0122667,-0.0944333,-0.1509333
0.02415,-0.1152,-0.02545
0.0304,-0.139,0.0744
0.0092333,-0.1284333,-0.0558333
0.03845,-0.09125,-0.1371
0.0175,-0.08725,-0.1789
-0.0172,-0.1354,-0.11155
-0.0139,-0.1119,-0.0293
-0.01745,-0.1237,-0.0573
-0.02185,-0.11345,-0.1349
-0.0079,-0.1231,-0.1563
0.0187333,-0.1110333,-0.1052
0.0074667,-0.0878333,-0.0890667
0.0008,-0.0851,-0.086
-0.02,-0.1106,-0.0814
-0.02205,-0.12075,-0.03245
0.03805,-0.13695,-0.06605
0.0077667,-0.1107667,-0.1714667
0.01235,-0.11125,-0.1237
0.0152,-0.1084,-0.0924
-0.0081,-0.09675,-0.09515
-0.0261,-0.1049,-0.0774333
-0.0118,-0.1195,-0.07295
-0.0041,-0.1083,-0.0412
-0.0007,-0.1077,-0.0622
0.0049333,-0.1003333,-0.0615333
-0.0184,-0.1008,-0.04145
-0.0255,-0.0792,-0.11415
-0.02225,-0.134,-0.00795
0.0152,-0.1319,0.0074
-0.00985,-0.0666,-0.13685
0.0103333,-0.0597333,-0.0502333
0.0254,-0.144,-0.08155
0.0066,-0.1422,-0.06195
0.01235,-0.11735,-0.1043
-0.0045,-0.0912,-0.1174
0.0133667,-0.1000667,-0.0607
0.01055,-0.0708,-0.04415
0.0077,-0.06365,-0.0448
-0.0143,-0.1048,-0.0631
-0.0199,-0.13205,-0.0606
0.00785,-0.1095,-0.0904
0.0116,-0.08505,-0.09015
-0.0013,-0.07525,-0.0697
-0.0198,-0.1011,-0.06555
-0.0141,-0.12845,-0.03585
-0.00095,-0.10775,-0.05825
0.01095,-0.08285,-0.1217
-0.0052,-0.1045,-0.1081
-0.0211,-0.09575,-0.072
-0.02125,-0.1076,-0.0754
0.0096,-0.0887,-0.108
0.0099,-0.09055,-0.1051
0.01395,-0.10515,-0.0752
-0.03115,-0.1006,-0.05295
-0.0203,-0.0989,-0.0703
-0.0005667,-0.1130333,-0.0745667
-0.007,-0.0588,-0.13085
0.00705,-0.09225,-0.05615
0.02975,-0.13505,0.0261
-0.01475,-0.06965,-0.15645
-0.0027,-0.03865,-0.08625
-0.02325,-0.12055,-0.1031
-0.0086,-0.1516,-0.06145
-0.0054,-0.1091,-0.1153333
0.0222,-0.0938,-0.112
0.01795,-0.06655,-0.07525
0.00715,-0.05115,-0.0495
-0.0321667,-0.0981,-0.0317
-0.01535,-0.1336,-0.037
0.0192,-0.1401,-0.0705
0.03995,-0.09685,-0.1231
0.0109333,-0.0618667,-0.1208
-0.0119,-0.07365,-0.0592
-0.01495,-0.10135,-0.04305
0.0246,-0.1083,-0.074825
0.0265,-0.08,-0.13435
-0.01185,-0.10175,-0.07545
-0.0289,-0.1041,-0.0559
-0.0212,-0.0985,-0.0446
-0.0198,-0.084775,-0.092325
-0.0026,-0.10075,-0.1587
0.02125,-0.1087,-0.094
-0.0188,-0.0985,-0.0784
-0.01165,-0.10075,-0.0459
0.0025,-0.10265,-0.0709
-0.01925,-0.05575,-0.1406
0.02705,-0.0992,-0.03355
0.03135,-0.07645,-0.1259
0.00165,-0.03885,-0.1251
0.00355,-0.09245,-0.01815
0.00245,-0.1481,-0.0777
-0.0084,-0.1411,-0.11075
0.00745,-0.10205,-0.20055
-0.0014,-0.0798,-0.2287
-0.0177,-0.0726667,-0.1441
-0.05265,-0.08425,-0.05755
-0.04365,-0.121,-0.0645
-0.00605,-0.14225,-0.1099
0.0511,-0.143,-0.1072
0.0438667,-0.0955667,-0.1393333
-0.00815,-0.0742,-0.0816
-0.0342,-0.08635,-0.0672
0.00905,-0.13095,-0.05405
0.0415,-0.1259,-0.0401
0.0247333,-0.1104667,-0.0797
0.0054,-0.0951,-0.1233
-0.0232,-0.11045,-0.0968
-0.0195,-0.1117,-0.0866
-0.0114,-0.1075,-0.0803
0.01605,-0.10225,-0.09015
0.01655,-0.0931,-0.07985
-0.00035,-0.09145,-0.06975
-0.0201,-0.0922,-0.06325
-0.0203333,-0.1124333,-0.0447667
-0.0136,-0.0905,-0.0813
-0.0119,-0.08145,-0.1002
0.0223,-0.1265,0.00375
0.0188667,-0.0573,-0.1451
0.0131,-0.0352,-0.0742
0.02115,-0.0806,-0.01
-0.024,-0.15215,-0.03955
0.0130667,-0.1274667,-0.0736667
0.01775,-0.0774,-0.1109
-0.0022,-0.0822,-0.0691
-0.0176333,-0.0511,-0.0191333
-0.0581,-0.0757,-0.00735
-0.01475,-0.1018,-0.0359
0.0175,-0.134,-0.05115
0.0433,-0.12,-0.1082
0.03275,-0.08645,-0.1386
0.002,-0.0565,-0.0948667
-0.0079,-0.079,-0.03935
0.00175,-0.12135,-0.02175
0.0113,-0.1254,-0.0607
-0.0005,-0.1208,-0.0781
-0.00035,-0.080625,-0.1114
0.02105,-0.08025,-0.1058
-0.0032,-0.0903,-0.11945
-0.02015,-0.08465,-0.0881
0.002,-0.1045,-0.0549
0.0170667,-0.0862,-0.0474
0.0014,-0.0675,-0.12495
-0.0153,-0.08765,-0.1797
-0.04685,-0.09145,-0.20505
0.0026,-0.09955,-0.14085
0.06855,-0.1142,0.0486
-0.00365,-0.06595,-0.09765
-0.0286,-0.0561,-0.11245
0.01475,-0.1302,-0.02475
0.0164,-0.1683,-0.06645
-0.00495,-0.1188,-0.075
-0.013,-0.09155,-0.1483
-0.02,-0.07175,-0.13355
-0.01905,-0.06165,-0.06065
-0.00695,-0.0652,-0.03295
-0.01585,-0.1192,-0.07065
0.02145,-0.1199,-0.08855
0.02455,-0.11775,-0.11525
-0.01065,-0.0728,-0.11805
-0.0207,-0.0549,-0.0915
-0.0299,-0.0864333,-0.0948333
0.0207667,-0.1264,-0.0566333
0.0185,-0.1122,-0.0582
0.0027,-0.0847,-0.09
0.0014,-0.09655,-0.08785
0.01125,-0.09095,-0.0853
0.0029,-0.1149333,-0.1011333
0.0074,-0.1125,-0.0709
-0.0104,-0.1094333,-0.0435333
-0.0201,-0.0894,-0.0657
-0.0180333,-0.0992,-0.0786333
-0.0055,-0.1035,-0.0815
0.0034667,-0.1025,-0.1049333
-0.0231,-0.1092,-0.11805
-0.0436,-0.07285,-0.13895
0.0037,-0.10975,-0.0064
0.01505,-0.1168,-0.0513
0.0004,-0.1135,-0.11925
0.0172,-0.0821,-0.1986
0.00405,-0.10445,-0.126975
-0.014,-0.1193,-0.0372
-0.0007,-0.11295,-0.0537
0.0128667,-0.1174333,-0.1019667
0.0202,-0.1101,-0.0913
-0.00665,-0.083125,-0.07285
-0.01035,-0.08975,-0.08755
-0.00715,-0.12965,-0.05205
0.0157,-0.13405,-0.06695
0.00055,-0.10085,-0.0888
-0.006,-0.1069,-0.11355
0.0051,-0.093,-0.099
-0.00415,-0.09265,-0.0819
-0.01095,-0.09665,-0.12435
0.0208,-0.1212,-0.131
0.0129667,-0.1194,-0.1087667
-0.01275,-0.11285,-0.08965
0.00285,-0.11445,-0.09115
-0.0059,-0.0985,-0.1206
-0.0104667,-0.1058667,-0.1177333
-0.02305,-0.101,-0.1577
0.00415,-0.1025,-0.0457
0.0257,-0.1392,0.0788
-0.0164,-0.1355,-0.0256
0.0091667,-0.0926333,-0.1171
0.0128,-0.07775,-0.18165
-0.01055,-0.1335,-0.0985
0.00745,-0.11885,-0.03245
0.012,-0.1062,-0.0366
-0.0010667,-0.1174333,-0.0867667
-0.00025,-0.1268,-0.09865
-0.0170667,-0.0792333,-0.1412667
-0.0166,-0.082,-0.1159
-0.0049333,-0.0882,-0.0678
0.0026,-0.1114,-0.0558
0.0334,-0.12745,-0.04465
0.02085,-0.12675,-0.09665
-0.0077,-0.1085667,-0.1182
0.0047,-0.1162,-0.0971
0.0086,-0.1153,-0.091
-0.018925,-0.10495,-0.0849
-0.0121,-0.11035,-0.079
0.0055,-0.1013,-0.10625
0.0067,-0.1208,-0.073
0.0021,-0.1053667,-0.1015667
-0.0135,-0.1078,-0.06745
-0.03115,-0.13915,-0.04855
-0.0443,-0.07125,-0.1768
0.0039,-0.0909,-0.0869
0.0210667,-0.1405333,-0.0123
0.00985,-0.12115,-0.0805
0.02585,-0.0909,-0.14965
0.00145,-0.08745,-0.19025
-0.0123,-0.106,-0.1043
0.019,-0.0987333,-0.0149333
-0.01655,-0.10625,-0.0626
-0.0126,-0.12245,-0.1325
-0.00645,-0.12095,-0.12525
0.0132,-0.1116,-0.1022
-0.0039,-0.08355,-0.10795
-0.0052,-0.0777333,-0.0747667
-0.02435,-0.1039,-0.0292
0.00035,-0.1281,-0.0301
0.03015,-0.13365,-0.06505
-0.0092,-0.1099,-0.1045
-0.0087,-0.09725,-0.1104
0.0044,-0.09735,-0.0875
-0.01205,-0.092,-0.1108
0.00515,-0.09895,-0.0828
0.0168,-0.098,-0.06355
0.0237,-0.09845,-0.03915
0.0073,-0.09415,-0.077
-0.02195,-0.08915,-0.14115
0.00855,-0.1551,0.00795
-0.0171,-0.1055,-0.1343
-0.0082,-0.06375,-0.1471
0.01625,-0.0788,-0.02195
-0.0177,-0.13825,-0.1195
-0.01585,-0.13225,-0.1247
0.01135,-0.08955,-0.139
-0.00185,-0.08635,-0.0825
-0.01135,-0.07535,-0.0022
0.0016,-0.07175,-0.00945
0.0063,-0.09195,-0.0617
0.00325,-0.1217,-0.098
0.00285,-0.1366,-0.1073
0.0072333,-0.0931333,-0.133
0.0145,-0.0498,-0.078
0.0093333,-0.0754333,-0.0621667
-0.0197,-0.1121,-0.0671
0.003,-0.14275,-0.04145
0.0128333,-0.1203667,-0.0784333
0.0063,-0.08065,-0.09375
-0.0037,-0.09385,-0.0622
-0.0097,-0.1157,-0.07375
-0.0155,-0.09995,-0.0915
-0.00975,-0.09495,-0.088
0.00235,-0.09295,-0.0868
-5e-05,-0.0922,-0.08565
-0.0005,-0.1089,-0.0588
0.0008333,-0.0904,-0.0729
-0.00285,-0.0788,-0.12355
0.02655,-0.1324,0.0459
0.009,-0.08765,-0.1031
-0.0029,-0.03095,-0.0956
0.0095,-0.0694,-0.0704
-0.0206,-0.15255,-0.08625
0.0051,-0.1328,-0.0926
-0.00795,-0.08015,-0.1143
0.01155,-0.09365,-0.0987
-0.005,-0.06245,-0.07405
-0.0225,-0.0876,-0.04925
-0.0289,-0.11005,-0.07275
-0.01795,-0.13975,-0.0604
0.013,-0.11075,-0.10115
0.02235,-0.08335,-0.09835
0.0076,-0.076,-0.06935
-0.0353,-0.09725,-0.0767
-0.02515,-0.11645,-0.07235
0.0121,-0.10795,-0.05955
0.01245,-0.09655,-0.08245
-0.01,-0.0647,-0.1105
-0.01785,-0.08995,-0.0887
-0.01785,-0.10765,-0.0721
-0.022,-0.1034,-0.065
0.0155667,-0.0935333,-0.0879
0.0059,-0.107,-0.0879
-0.0018,-0.0922,-0.0462
0.0041,-0.08745,-0.055
-0.0078,-0.08675,-0.06515
-0.0205667,-0.0972333,-0.0814
-0.0123,-0.0629,-0.1411
0.0119,-0.10255,-0.01765
0.0371,-0.12015,-0.01115
-0.0217,-0.0641,-0.1543
-0.0041667,-0.0359333,-0.0884667
-0.0010667,-0.1361,-0.0687
0.00015,-0.13595,-0.08385
0.012,-0.0722,-0.1083
0.0297333,-0.0541667,-0.1238
-0.0136,-0.072175,-0.05695
-0.0283,-0.1035,-0.0574
-0.0164333,-0.1284333,-0.0809
0.01615,-0.11005,-0.1206
0.0372,-0.0881,-0.1323
0.02565,-0.0907,-0.09285
-0.0210667,-0.063,-0.0867
-0.0197,-0.1044,-0.03355
-0.0032,-0.1161,-0.0313
0.0206667,-0.1091,-0.0873333
0.00145,-0.0838,-0.1065
-0.0141,-0.08965,-0.1147
-0.00275,-0.0982,-0.08845
-0.00895,-0.0977,-0.0842
-0.0001,-0.0944,-0.09265
0.01665,-0.08575,-0.0834
-0.00265,-0.09305,-0.0658
-0.0132,-0.09305,-0.05615
-0.0135,-0.0915,-0.0758
0.0002,-0.0883,-0.08285
-0.0049,-0.0959,-0.1248
0.00095,-0.1025,-0.08725
0.0384,-0.1208,-0.02315
0.0066,-0.0665,-0.1366
-0.0166,-0.0439,-0.1744
0.0233333,-0.0957,-0.0308333
0.01795,-0.14375,-0.0428
0.01815,-0.1059,-0.0907
0.024,-0.0715,-0.19905
-0.01,-0.0765,-0.1784
0.0081,-0.0952333,-0.0664333
-0.0176,-0.0953,-0.03995
-0.0124,-0.09735,-0.091
-0.00685,-0.12445,-0.089
0.03285,-0.1037,-0.11075
0.02115,-0.0812,-0.11805
-0.0064,-0.0755,-0.0763
-0.0193,-0.0851,-0.05725
0.0255,-0.1168,-0.035
0.01175,-0.11935,-0.0893
-0.02715,-0.10885,-0.1677
-0.0144,-0.096,-0.15885
0.01685,-0.1051,-0.1073
-0.011,-0.0962,-0.129
-0.0197667,-0.0959333,-0.1462333
-0.0051667,-0.1081,-0.1327667
0.0009,-0.116,-0.0876
-0.01015,-0.1052,-0.0804
-0.007,-0.1014,-0.0574
0.017925,-0.106675,-0.081925
0.0196,-0.0918,-0.05885
-0.0147,-0.10405,-0.0814
-0.0251,-0.0871,-0.1603
0.0232333,-0.1050333,-0.0592667
0.0304,-0.1451,0.0021
0.01005,-0.1275,-0.08075
-0.0009333,-0.0912,-0.1348333
0.0057,-0.0652,-0.18925
-0.01125,-0.08095,-0.0947
-0.0245,-0.1054,-0.034
-0.0213,-0.11405,-0.0319
-0.0262667,-0.1188,-0.0748
-0.0069,-0.1294,-0.11055
0.0101,-0.0996,-0.1498
0.0192333,-0.0797333,-0.1131333
0.02345,-0.084,-0.0568
-0.00965,-0.10875,-0.0242
0.01175,-0.1336,-0.0352
-0.0008,-0.1196,-0.0746
-0.01465,-0.09515,-0.1497
-0.0076,-0.1033333,-0.1135333
0.0105,-0.1102,-0.0627
-0.0086,-0.0947,-0.0767
-0.0033,-0.0834,-0.0944
-0.0152,-0.1050333,-0.0961
0.01045,-0.10295,-0.0902
-0.01015,-0.09125,-0.0621
-0.00475,-0.09725,-0.0505
-0.00265,-0.08265,-0.09725
-0.0018,-0.1107,-0.0704
-0.0020333,-0.1279667,-0.0027333
-0.01775,-0.05885,-0.1668
0.01305,-0.0312,-0.07525
0.0171,-0.1159,-0.07595
-0.0032,-0.1623,-0.0746
-0.0045333,-0.1465667,-0.0591333
-0.00205,-0.09675,-0.07455
0.00655,-0.1026,-0.0926
0.01075,-0.0639,-0.0668
0.01005,-0.0696,-0.05055
-0.00435,-0.09255,-0.0521
0.01395,-0.12805,-0.03625
0.01265,-0.1165,-0.06865
0.02935,-0.09095,-0.1263
-0.00535,-0.0869,-0.07945
-0.01115,-0.09645,-0.0791
0.0031667,-0.1089333,-0.0664
0.00835,-0.1032,-0.06975
0.0056,-0.0906,-0.084
-0.0076333,-0.0941333,-0.0883667
-0.0041,-0.1002,-0.07145
0.0237,-0.09935,-0.077
0.0079,-0.1012,-0.0913
0.0079,-0.1025,-0.0896
-0.0127333,-0.0872333,-0.0857667
-0.02665,-0.08655,-0.0638
-0.00695,-0.0949,-0.08545
-0.0118,-0.08745,-0.12035
0.0211,-0.13135,0.0154
-0.0082,-0.09925,-0.1113
0.00315,-0.0312,-0.11855
0.01755,-0.0753,-0.05935
-0.0107,-0.1468,-0.05295
-0.0171,-0.1569,-0.0776
0.0092,-0.1042,-0.1451
0.0233333,-0.0706333,-0.123
0.01115,-0.07175,-0.03445
-0.0177,-0.07795,-0.02345
-0.0307,-0.10155,-0.0322
-0.0172,-0.12345,-0.0428
0.00855,-0.0989,-0.09335
0.03695,-0.0835,-0.12035
0.02025,-0.05735,-0.04825
-0.0142,-0.0923,-0.0519
-0.0027,-0.1124,-0.04985
0.0196,-0.10425,-0.0615
0.01735,-0.08645,-0.09705
-0.02305,-0.06705,-0.1193
-0.0158,-0.0824,-0.08555
0.0188,-0.1127,-0.06665
0.00495,-0.0866,-0.07115
0.0083,-0.07325,-0.0876
0.00855,-0.078,-0.0885
0.00575,-0.0745,-0.0909
-0.0245,-0.0958,-0.0956
-0.0301,-0.0792,-0.1387
0.005,-0.10085,-0.05395
0.04025,-0.113,-0.0352
0.00165,-0.0617,-0.19995
-0.0073,-0.0482,-0.05935
0.00875,-0.11265,-0.0129
0.0064,-0.1388,-0.03245
0.01685,-0.09305,-0.13595
0.00385,-0.0676,-0.1774
-0.0184,-0.0584,-0.1366
-0.0179,-0.08035,-0.0401
-0.0122,-0.0931,-0.0313333
0.0038,-0.12775,-0.0715
0.0097,-0.1084,-0.1204
0.0144667,-0.0876667,-0.1625667
0.0096,-0.0612,-0.1391
-0.0085,-0.0772333,-0.0756667
0.0214,-0.10825,-0.0491
0.0247,-0.1138,-0.0606
0.02615,-0.0899,-0.0929
0.0114,-0.0839,-0.1329
0.0183,-0.1073,-0.11585
-0.0008,-0.1153,-0.08725
-0.0057,-0.115,-0.0774
0.00235,-0.08175,-0.1024
-0.0034333,-0.0731333,-0.0884667
-0.02435,-0.0823,-0.06835
-0.02495,-0.08405,-0.0921
-0.0029,-0.09645,-0.06515
0.00945,-0.11765,-0.06115
-0.04035,-0.06455,-0.17105
-0.04125,-0.0892,-0.0569
-0.00125,-0.1323,-0.01075
0.0191,-0.09365,-0.05755
0.03395,-0.08525,-0.1184
0.0356,-0.0787,-0.20885
0.01985,-0.1064,-0.1278
0.0184,-0.11225,-0.06095
0.0094,-0.0892,-0.0256
-0.00555,-0.10435,-0.0533
0.003,-0.1154,-0.0903
-0.01205,-0.10425,-0.13285
-0.001,-0.07685,-0.10105
-0.01935,-0.09345,-0.04955
0.0137,-0.1197,-0.03335
0.02705,-0.11615,-0.0461
0.0073,-0.08735,-0.10835
-0.0097,-0.10155,-0.11285
-0.00135,-0.11845,-0.114
0.0205,-0.0973,-0.0936
0.01355,-0.0881,-0.0847
0.01345,-0.1107,-0.1029
0.0002,-0.10625,-0.1117
-0.0223,-0.11045,-0.0966
-0.005,-0.10705,-0.12415
-0.00695,-0.1024,-0.12155
0.01045,-0.1113,-0.0656
-0.01685,-0.09075,-0.1753
-0.0065,-0.0853,-0.09765
0.01895,-0.1269,0.00155
0.0206333,-0.1246333,-0.1092333
0.0178,-0.0801,-0.1454
-0.0193333,-0.0908333,-0.1281333
-0.0161,-0.12165,-0.01275
0.008,-0.1099,0.0027
0.0216,-0.1077,-0.0661
0.0289,-0.1109,-0.0747
0.0298333,-0.1264333,-0.1178333
0.0168,-0.1162,-0.1391
0.026,-0.10245,-0.12135
-0.03135,-0.09455,-0.0876
-0.0092,-0.1105333,-0.0603
0.0008,-0.11225,-0.06325
-0.03005,-0.11705,-0.1155
-0.02975,-0.11555,-0.1199
0.0031,-0.1226,-0.0954
0.0229,-0.1130333,-0.0996
0.03075,-0.10645,-0.0737
0.01375,-0.08905,-0.06275
0.01325,-0.0985,-0.07835
0.00455,-0.1086,-0.04495
0.00435,-0.09755,-0.1012
0.0209,-0.12355,-0.06305
-0.02455,-0.0989,-0.1178
-0.0401,-0.09,-0.131
0.02685,-0.1193,0.04865
-0.00765,-0.1291,-0.06555
0.00735,-0.08735,-0.1083
0.0145,-0.08115,-0.1705
-0.00105,-0.0939,-0.14995
0.0165,-0.13605,-0.0311
-0.0117,-0.104,-0.02615
-0.02455,-0.1074,-0.07555
-0.00605,-0.11725,-0.1059
0.024,-0.0974,-0.111
0.01565,-0.0821,-0.1354
0.02905,-0.08865,-0.10985
-0.0172,-0.09095,-0.05295
0.00495,-0.1273,-0.031
0.0312,-0.115,-0.02845
-0.02855,-0.09105,-0.1039
-0.00755,-0.0867,-0.1484
0.0323,-0.11075,-0.11895
0.00195,-0.1102,-0.1031
-0.0122,-0.1008,-0.0748
0.0191,-0.09135,-0.08145
-0.01005,-0.102,-0.08125
-0.004,-0.10745,-0.09625
-0.0117,-0.0989,-0.1119
0.0494,-0.1332,-0.0187
-0.0227,-0.08475,-0.1554
-0.0030333,-0.0816667,-0.0357
0.025,-0.1175,0.0391
-0.0071,-0.13445,-0.0669
0.0130667,-0.0819,-0.1514667
0.01325,-0.0721,-0.201
0.0114,-0.1134,-0.07825
0.0018,-0.0913,-0.02055
-0.0244,-0.1083,-0.04765
-0.0018,-0.11945,-0.1014
0.01075,-0.1051,-0.11365
0.0169,-0.08,-0.0862
0.0044333,-0.0867667,-0.1201333
0.0009,-0.0944,-0.0706
-0.0034,-0.1151,-0.0463
0.0206667,-0.1180667,-0.0304667
0.00055,-0.11075,-0.0711
-0.028,-0.10695,-0.1541
0.0034,-0.0887,-0.12525
0.0028,-0.10145,-0.05925
-0.0146,-0.10525,-0.0647
-0.0129,-0.1065,-0.0825
-0.00305,-0.09485,-0.09905
0.0096,-0.0953,-0.05625
-0.0163,-0.086,-0.13185
0.0264,-0.1198,-0.04895
0.0226,-0.1201,-0.08255
-0.01585,-0.0658,-0.17575
0.03575,-0.09245,0.03995
-0.0165,-0.14685,-0.032
-0.02165,-0.116,-0.09965
0.01325,-0.0569,-0.19165
0.00385,-0.08165,-0.1629
0.015,-0.1144,-0.05725
-0.00665,-0.10655,-0.01825
-0.03995,-0.10075,-0.0794
-0.0185,-0.117,-0.1223
0.015,-0.1041,-0.10855
0.0133,-0.092,-0.121
0.0024,-0.08485,-0.1278
-0.0053,-0.09255,-0.0505
-0.00825,-0.1096,-0.0341
0.0286,-0.1362,-0.0236
0.0117,-0.1139,-0.0667
-0.0172,-0.0713,-0.13
-0.00635,-0.08265,-0.096
0.00455,-0.10385,-0.07265
-0.00225,-0.1096,-0.06535
0.00555,-0.10875,-0.0808
0.011,-0.0983,-0.1112
-0.0024,-0.0840333,-0.0818
-0.0131,-0.08625,-0.08695
-0.00875,-0.0824,-0.0919
0.0508,-0.1291,0.0125
-0.0046,-0.1027667,-0.1276667
0.0024,-0.0586,-0.06005
0.00255,-0.13515,0.04045
-0.01315,-0.138,-0.07775
0.01865,-0.07575,-0.1327
0.0255,-0.0426,-0.20985
-0.0032,-0.1087,-0.1121
-0.0046,-0.10955,-0.0274
-0.0233,-0.0815,-0.0449
-0.0220667,-0.1182333,-0.1024333
0.0024,-0.09455,-0.1234
0.0276,-0.0917,-0.107
0.0132,-0.07105,-0.1243
0.0019,-0.08565,-0.0726
-0.0074,-0.10625,-0.0315
0.0177,-0.1326,-0.04325
0.01295,-0.10875,-0.07035
-0.01495,-0.0874,-0.12645
-0.01635,-0.0773,-0.15555
0.0068,-0.09095,-0.08485
0.0114,-0.09435,-0.0904
0.0145,-0.0912,-0.1125
0.0084,-0.1158,-0.1142667
-0.00165,-0.109,-0.107
-0.0066,-0.1018,-0.12125
-0.00455,-0.08245,-0.1096
-0.00255,-0.1108,-0.105
0.00255,-0.07365,-0.14585
0.00055,-0.11095,-0.07385
0.01335,-0.10585,-0.0498
-0.01625,-0.0492,-0.17735
0.0095,-0.086,0.0098
-0.01285,-0.1549,-0.0285
-0.038,-0.1687,-0.07375
-0.00155,-0.09975,-0.12735
0.031,-0.0778,-0.1347
0.02975,-0.0933,-0.10385
0.0084,-0.0769,-0.0526
0.00195,-0.0876,-0.0269
-0.0296,-0.1084,-0.04045
-0.0111,-0.1301,-0.04855
0.0142,-0.0988,-0.0924
0.02035,-0.0881,-0.11865
0.03715,-0.07675,-0.0517
0.0141,-0.0754,-0.0554
-0.00285,-0.1039,-0.0397
-0.0076,-0.113,-0.0524
-0.0105,-0.0995333,-0.1200333
0.02415,-0.08135,-0.1117
0.0033,-0.1079,-0.0733
-0.0117,-0.1051,-0.0683
-0.0048667,-0.1094,-0.0622
0.01105,-0.09875,-0.0712
0.00685,-0.08375,-0.06745
0.0146,-0.0948,-0.0922
0.0166333,-0.1123667,-0.0651
-0.0095,-0.1071,-0.05875
0.0002,-0.10875,-0.02745
-0.0128,-0.06375,-0.09645
-0.017,-0.0372,-0.151
0.0131667,-0.1144,-0.0135
-0.00675,-0.09225,-0.09465
0.00285,-0.04555,-0.0826
-0.00585,-0.09085,-0.05785
-0.02155,-0.1568,-0.03435
-0.00895,-0.13475,-0.0472
0.02055,-0.07065,-0.1237
0.01785,-0.06645,-0.1231
0.0111,-0.03815,-0.0573
0.007,-0.0767,-0.02645
-0.00985,-0.1192,-0.01875
-0.03165,-0.13205,-0.0643
-0.01115,-0.10685,-0.1121
0.0177,-0.0698,-0.14655
0.0239,-0.0736,-0.0973
0.00865,-0.07705,-0.07435
0.0052,-0.1106,-0.0482
0.0087,-0.11835,-0.05735
-0.00105,-0.0942,-0.0851
0.0028,-0.07675,-0.1172
0.0048,-0.0807,-0.0997
0.0079,-0.0923,-0.08915
-0.0102,-0.10925,-0.0916
-0.00685,-0.0818,-0.10665
-0.00315,-0.07495,-0.11415
0.01755,-0.08485,-0.08645
-0.0139,-0.09195,-0.0749
-0.0322,-0.0855,-0.0765
-0.01035,-0.09745,-0.08935
0.00275,-0.0933,-0.09025
-0.00175,-0.07825,-0.1296
0.023,-0.1171,-0.0276
-0.0044,-0.09505,-0.1153
-0.0158,-0.03585,-0.12605
0.001,-0.092,0.001
-0.00935,-0.14,-0.04585
0.0022,-0.1062,-0.08275
0.0091,-0.07925,-0.1649
0.00645,-0.06605,-0.17305
-0.0023667,-0.0818667,-0.0852333
0.002,-0.0905,-0.0241
-0.0118,-0.1071,-0.05065
-0.0059667,-0.1166,-0.0997667
0.0041,-0.1071,-0.1412
0.0166,-0.0809,-0.12365
-0.0056,-0.0613,-0.0787
-0.0072333,-0.0942,-0.0671
-0.00145,-0.1101,-0.05295
0.0081,-0.1128,-0.05585
-0.0059,-0.0941,-0.11355
-0.00745,-0.09935,-0.1092
0.0158,-0.1015,-0.0722
0.02335,-0.0816,-0.0876
0.0086,-0.0923,-0.0836
0.0075,-0.1042,-0.1033
0.0122,-0.1157,-0.09225
-0.00825,-0.10425,-0.0975
0.0045,-0.1081,-0.1108
-0.0016,-0.10145,-0.11705
-0.01415,-0.09095,-0.1286
-0.00625,-0.0889,-0.1033
0.0033,-0.10735,-0.0903
-0.0126,-0.0752,-0.1176
0.0059,-0.1002333,-0.0054667
0.03235,-0.13415,0.0132
0.0371,-0.10825,-0.0691
0.0221,-0.08605,-0.1772
-0.0309,-0.10985,-0.2018
-0.0143,-0.11685,-0.1078
0.0074,-0.10185,-0.06455
-0.00115,-0.08895,-0.0663
-0.0201,-0.1036,-0.1106
0.0101,-0.10795,-0.1191
0.0022,-0.08015,-0.144
0.03065,-0.10845,-0.0882
-0.00255,-0.1112,-0.0573
0.01135,-0.1211,-0.05345
0.0224,-0.128,-0.05365
-0.01255,-0.09315,-0.1162
-0.0193,-0.1013,-0.1355
0.0119,-0.10735,-0.11415
0.00615,-0.1027,-0.0949
0.00555,-0.1058,-0.1057
0.01285,-0.1146,-0.11545
0.0157,-0.1161,-0.1051
-0.00465,-0.1023,-0.07105
-0.0237,-0.09495,-0.0398
-0.0017,-0.09815,-0.06415
-0.00355,-0.11275,-0.1175
-0.0014,-0.1291667,-0.0502333
-0.01675,-0.0595,-0.1888
-0.0008,-0.0501,-0.1197
0.0268,-0.1304333,0.0283
-0.0101,-0.13775,-0.0867
-0.0079,-0.0833,-0.1158
0.0209,-0.07045,-0.17335
0.0062,-0.0947,-0.1345
0.013,-0.1129667,-0.0439333
-0.00735,-0.1058,-0.031
0.00785,-0.105,-0.084975
-0.00775,-0.13585,-0.09195
-0.008,-0.08925,-0.1092
0.0367,-0.07365,-0.07895
-0.00285,-0.06915,-0.0419
-0.01,-0.1079,-0.0228
-0.0003,-0.11645,-0.03055
-0.0193,-0.10395,-0.08705
-0.00895,-0.10015,-0.08745
0.00385,-0.0997,-0.08225
0.00445,-0.0765,-0.10915
-0.0042,-0.09705,-0.10935
-0.01865,-0.09985,-0.0846
-0.00045,-0.1079,-0.0694
-0.01445,-0.09425,-0.0793
0.02175,-0.0967,-0.0622
0.0119,-0.0484,-0.11595
-0.0016,-0.0868,-0.05555
0.02615,-0.1263,0.01455
0.0014,-0.0666,-0.1332
0.02075,-0.04895,-0.0846
0.01735,-0.08735,-0.08945
-0.0018,-0.14425,-0.108
-0.01765,-0.13635,-0.10965
-0.0149,-0.1076,-0.10575
-0.00525,-0.09145,-0.0803
0.02665,-0.05655,-0.0597
0.00755,-0.07565,-0.04995
-0.0166,-0.10505,-0.04915
-0.0166,-0.1194,-0.04585
0.00305,-0.10055,-0.0755
0.0164,-0.0629,-0.1138
0.01545,-0.07985,-0.0739
-0.016,-0.0977,-0.0709
-0.0203,-0.11105,-0.04105
0.00275,-0.11735,-0.05815
0.0197,-0.0927,-0.0972
0.0045,-0.084,-0.1179
0.00585,-0.0895,-0.0894
-0.0098,-0.1008,-0.0740667
-0.0208,-0.09125,-0.08855
0.00795,-0.09375,-0.0856
0.014,-0.0672,-0.0901
-0.0052,-0.0905,-0.073
-0.01975,-0.0863,-0.1157
-0.0044,-0.0929,-0.07875
0.0327,-0.13015,0.03875
-0.01165,-0.06145,-0.1362
0.00615,-0.02065,-0.0737
-0.0031,-0.08805,-0.0485
-0.0197,-0.1388,-0.04655
-0.0185,-0.1435,-0.0485
0.0059,-0.0858333,-0.0995
0.02005,-0.05295,-0.0885
0.00165,-0.04635,-0.0422
-0.01245,-0.0667,-0.00685
-0.0166,-0.11765,-0.03845
0.00735,-0.12345,-0.06495
0.02535,-0.09445,-0.12005
0.0292,-0.07215,-0.1096
-0.00575,-0.07465,-0.07765
-0.01455,-0.08525,-0.07705
-0.00435,-0.11575,-0.0577
0.01255,-0.1178,-0.0862
0.0297,-0.07545,-0.1271
-0.0155,-0.0765,-0.1055
-0.01145,-0.09515,-0.0788
-0.0111,-0.1063,-0.0835
-0.0075,-0.0996,-0.0972
0.0054,-0.0981333,-0.1104667
-0.00595,-0.0855,-0.0999
-0.00365,-0.08455,-0.07
-0.01235,-0.08545,-0.1068
-0.0057,-0.09195,-0.08975
0.03575,-0.12885,-0.01775
0.00665,-0.08005,-0.1745
-0.00515,-0.0545,-0.10225
-0.01155,-0.10565,-0.01195
-0.00605,-0.12215,-0.0469
0.01555,-0.08655,-0.10415
0.02055,-0.0626,-0.1853
0.0024,-0.08255,-0.1371
-0.0003,-0.09,-0.0724
-0.013,-0.0869,-0.0469
-0.0111,-0.10335,-0.0775
0.00145,-0.1253,-0.1098
0.0047,-0.0942,-0.1539
-0.00205,-0.08365,-0.12215
0.01075,-0.0686,-0.07265
0.01315,-0.09595,-0.0537
0.0304667,-0.109,-0.0467333
0.0141,-0.09975,-0.11435
-0.0049,-0.0928,-0.1085
-0.0215,-0.1085,-0.0887
-0.0045667,-0.1047667,-0.0676
-0.00385,-0.10205,-0.09415
-0.001,-0.09225,-0.10185
-0.00105,-0.09105,-0.0818
-0.01225,-0.09735,-0.09485
0.0029,-0.11035,-0.1147
0.02735,-0.1192,-0.0745
0.02505,-0.11025,-0.0852
-0.0137,-0.0515,-0.1775
-0.0103333,-0.0664,-0.0672
0.01065,-0.1284,-0.0208
0.0245,-0.11535,-0.0846
0.0317,-0.07355,-0.1559
0.01665,-0.08515,-0.2083
0.0039,-0.1271,-0.1319
0.00615,-0.11215,-0.0197
-0.01015,-0.0998,-0.02975
-0.01955,-0.11925,-0.0765
0.00805,-0.1212,-0.154
0.01715,-0.0986,-0.14755
0.0115,-0.08575,-0.11935
-0.03025,-0.0989,-0.10695
-0.00635,-0.1253,-0.0223
0.0305,-0.12295,-0.05355
0.0086,-0.0996,-0.11625
0.00835,-0.1038,-0.1173
0.02435,-0.1037,-0.0794
0.00985,-0.09075,-0.08185
0.01445,-0.12115,-0.09555
-0.00545,-0.1128,-0.10195
0.00185,-0.10375,-0.08915
0.0077,-0.10125,-0.08615
-0.0002,-0.09485,-0.12205
0.0123,-0.1111,-0.07655
0.0015,-0.10705,-0.10025
-0.01495,-0.06555,-0.14115
0.02915,-0.116,0.0297
-0.01275,-0.1408,-0.0567
-0.0078,-0.09885,-0.13115
0.0046,-0.05825,-0.18555
0.00755,-0.09835,-0.18195
0.0076,-0.1318,-0.1048
0.01955,-0.11175,-0.04945
-0.01015,-0.10965,-0.06855
-0.0153,-0.12925,-0.0833
-0.02065,-0.1239,-0.1275
0.0009667,-0.0861,-0.1309333
0.0147,-0.0801,-0.0749
0.0056,-0.0979,-0.0513333
0.0179,-0.1358,0.0075
0.0212,-0.11975,-0.0089
-0.0054,-0.0842,-0.1191667
-0.00395,-0.0943,-0.1362
-0.014,-0.0938,-0.0898
-0.0071,-0.0959,-0.0902
-0.0144333,-0.1015333,-0.0745333
0.00025,-0.1124,-0.0925
0.00765,-0.102,-0.07835
-0.0245,-0.0698,-0.09075
0.00075,-0.0724,-0.08415
0.03795,-0.1254,0.01885
0.0243,-0.08295,-0.08445
0.0149,-0.05805,-0.0896
0.0211,-0.086,-0.0071
-0.0003333,-0.1450667,-0.08
0.0071,-0.1439,-0.0572
-0.00725,-0.1003,-0.0979
-0.00755,-0.0953,-0.0856
0.0057,-0.08145,-0.05395
0.00185,-0.06955,-0.02265
-0.0073,-0.09315,-0.0338
-0.0163,-0.105,-0.0294
0.0022667,-0.1281667,-0.0599667
0.01575,-0.0854,-0.12995
0.0229,-0.06165,-0.08405
-0.0048,-0.0665,-0.0603
-0.0116,-0.1032333,-0.0409
0.00285,-0.11875,-0.04915
-0.0106,-0.0926,-0.1083
0.0138,-0.08115,-0.1127
0.00435,-0.096,-0.089
-0.0004,-0.10625,-0.07405
-0.0179,-0.10115,-0.0708
0.0024,-0.078,-0.0872
0.00585,-0.09805,-0.0972
0.00385,-0.0762,-0.109
-0.03925,-0.075,-0.1127
0.0064,-0.133,0.0107
-0.0012,-0.09705,-0.10685
0.0106,-0.04795,-0.09745
0.02275,-0.0703,-0.06285
-0.0001,-0.1495,-0.0841
-0.0044,-0.1401,-0.08905
0.0086,-0.09635,-0.1257
0.01685,-0.0743,-0.11305
0.0070667,-0.0683667,-0.0683667
-0.0238,-0.0833,-0.0372
-0.0211,-0.11075,-0.0433
0.005,-0.1252667,-0.0747
0.0109,-0.0949,-0.148
0.0042,-0.0663,-0.1223333
-0.0153,-0.0835,-0.0737
-0.003,-0.10945,-0.0589
-0.01085,-0.10975,-0.05785
-0.0032,-0.0976,-0.0734
0.00405,-0.0855,-0.1094
0.0101,-0.0784667,-0.1219333
0.00315,-0.10095,-0.07085
-0.01945,-0.11365,-0.08325
-0.005,-0.09185,-0.08265
0.00025,-0.08805,-0.1108
-0.00725,-0.09265,-0.0672
0.00125,-0.07215,-0.0982
-0.00745,-0.0873,-0.09955
0.0299,-0.12945,0.01665
0.00015,-0.07705,-0.1297
0.0094,-0.0264,-0.07515
0.01185,-0.1069,-0.0596
-0.02525,-0.1491,-0.0637
-0.01065,-0.128,-0.11385
0.00055,-0.07,-0.1566
0.028,-0.08455,-0.11315
-0.0003,-0.0528,-0.06315
-0.0218,-0.0883,-0.0015
-0.02665,-0.11985,-0.0252
0.0052,-0.13735,-0.0558
0.0148,-0.07705,-0.10965
0.0239,-0.057,-0.0838
-0.003,-0.05645,-0.03065
-0.00595,-0.10405,-0.02845
0.008,-0.1072,-0.0192
0.0175,-0.0892,-0.07595
0.007,-0.0761,-0.1105
-0.00895,-0.07455,-0.1058
0.0069,-0.0969,-0.0625
0.0046,-0.0868333,-0.0862667
0.0081,-0.09455,-0.07975
-0.00035,-0.0891,-0.0931
-0.0023,-0.07665,-0.08475
0.00165,-0.0738,-0.09335
-0.02085,-0.06825,-0.1193
0.0143,-0.1203,-0.01925
0.02435,-0.09525,-0.09285
0.0021,-0.01835,-0.18315
0.00105,-0.0674,-0.0496
-0.00135,-0.1475,-0.0709
-0.00485,-0.1341,-0.0845
0.0043,-0.0786,-0.15215
-0.0017,-0.068,-0.15975
-0.0097,-0.0716,-0.0862
-0.0033,-0.0925,-0.0351
-0.0005333,-0.1121,-0.0440667
0.02005,-0.1304,-0.1157
0.01365,-0.09785,-0.17155
0.01545,-0.0751,-0.11255
-0.0154,-0.0674,-0.0882
-0.0005,-0.0865333,-0.0732333
0.00085,-0.11195,-0.06355
0.01115,-0.09525,-0.10995
-0.0226,-0.1016,-0.1354
0.0006667,-0.0852333,-0.1077333
0.0182,-0.099,-0.0717
0.0089333,-0.1005667,-0.1058667
-0.00105,-0.0858,-0.1224
-0.00595,-0.08075,-0.08725
0.00395,-0.0971,-0.0814
0.0059,-0.0982,-0.09175
0.0092,-0.09635,-0.0631
0.0117,-0.11,-0.0578
-0.03275,-0.0524,-0.17405
-0.0212,-0.0814,-0.05765
-0.00295,-0.14375,0.0037
0.01215,-0.12515,-0.0781
0.0049,-0.0614,-0.12455
-0.0335,-0.0413,-0.2045
-0.0283,-0.05485,-0.17365
0.0143,-0.099,-0.08825
0.0533,-0.1849,-0.016
0.01495,-0.20015,-0.0148
-0.0464,-0.10745,-0.15285
0.0279,-0.00365,-0.23105
0.092,-0.047,-0.1593
0.0166,-0.16065,-0.10725
-0.0553,-0.1263,-0.02005
0.00195,-0.12465,-0.01965
0.0352,-0.04665,-0.0509
0.0931,-0.0977,-0.0541
0.10555,-0.15015,-0.03845
0.02245,-0.245,-0.0512
-0.11025,-0.20495,-0.08015
-0.0798,-0.02405,-0.03085
-0.04875,0.02205,-0.0629
-0.09565,-0.1267,-0.10595
-0.0854,-0.168,-0.1391
0.02545,-0.09005,-0.09455
0.17595,-0.0622,-0.0228
0.18105,-0.02705,-0.1456
0.1476,-0.06665,-0.0628
0.09665,-0.13855,0.0025
-0.0072333,-0.1401,-0.0678667
-0.138,-0.0871,-0.12525
-0.1749,-0.0734,-0.16235
-0.168,-0.0901,-0.1533
-0.0959333,-0.1006667,-0.0876333
-0.01875,-0.1039,-0.0672
-0.0039,-0.1301,-0.0778
0.0620333,-0.1226667,-0.0972
0.07735,-0.07615,-0.13925
0.03945,-0.06635,-0.1086
-0.01745,-0.09205,-0.0623
-0.033,-0.1261,0.0148
-0.0159667,-0.1501,0.0254333
-0.0121,-0.11935,-0.06265
0.00725,-0.0845,-0.1115
0.015,-0.0907,-0.10625
0.0156,-0.0811,-0.0998
-0.0015333,-0.0916333,-0.0925
0.01705,-0.08705,-0.06265
0.04025,-0.07695,-0.0886
0.01895,-0.1054,-0.07315
-0.02145,-0.1099,-0.1161
-0.03025,-0.10305,-0.10325
-0.0066,-0.1171,-0.0327
-0.03475,-0.05955,-0.16055
-0.0296,-0.0398,-0.01255
-0.0135,-0.126,0.01785
-0.0105,-0.14095,-0.0755
0.01515,-0.097,-0.12495
0.02705,-0.0629,-0.1881
0.0571,-0.084,-0.11175
0.0625,-0.09975,-0.04185
0.0121,-0.09455,-0.03215
0.01955,-0.11135,-0.0614
0.03665,-0.1231,-0.08925
0.0256,-0.1068,-0.13525
-0.0118,-0.05565,-0.13105
-0.04055,-0.0702,-0.0638
-0.0443,-0.09535,-0.05575
0.0055,-0.1291,-0.0429
0.0167,-0.1084,-0.08735
-0.00945,-0.0868,-0.10675
-0.0099,-0.07685,-0.09965
0.03465,-0.0953,-0.07275
0.0216,-0.09605,-0.08675
0.0181,-0.1136,-0.07985
0.00845,-0.1046,-0.0855
-0.01345,-0.08165,-0.0783
-0.0046333,-0.1056667,-0.0661333
-0.02275,-0.0884,-0.13345
-0.0144,-0.0836,-0.1019
0.0177,-0.1122667,-0.0771667
-0.0385,-0.0592,-0.1789
-0.00545,-0.0638,0.0253
0.0021,-0.12775,0.00305
0.0217,-0.1258,-0.0386
0.0428,-0.1254,-0.0683
