accx,accy,accz
-0.0783,-0.0530333,-0.1412667
-0.02945,-0.0423,-0.04615
-0.01145,-0.14995,0.00375
-0.0104,-0.2389,0.00495
-0.0026,-0.25015,-0.01505
0.0116,-0.23415,-0.0307
-0.00275,-0.2366,-0.05645
-0.0179,-0.21015,-0.08725
-0.019,-0.0891,-0.06255
0.0126,-0.08605,-0.0515
0.0179,-0.0604,-0.0878
0.0125,-0.08405,-0.12565
-0.01175,-0.1481,-0.14325
-0.0127,-0.1532,-0.12315
-0.00605,-0.1626,-0.1101
0.01655,-0.23015,-0.1121
-0.0269,-0.16665,-0.1033
-0.02345,-0.1073,-0.1091
-0.0094,-0.12505,-0.08275
-0.01455,-0.15205,-0.0669
-0.0178,-0.20995,-0.139
-0.0039,-0.216,-0.1379
0.01665,-0.12125,-0.1059
0.01205,-0.0671,-0.07935
-0.01085,-0.0847,-0.1094
-0.0355,-0.17275,-0.11775
-0.0278,-0.20605,-0.0987
-0.0333,-0.19485,-0.0679
-0.0393,-0.16395,-0.0505
-0.0236,-0.1589,-0.0477
-0.0037,-0.15885,-0.0665
-0.011,-0.16115,-0.04865
-0.002,-0.16915,-0.06135
-0.01485,-0.15935,-0.07705
-0.02435,-0.20465,-0.0501
-0.04375,-0.21955,-0.0306
-0.03775,-0.14775,-0.03495
-0.04585,-0.08035,-0.05855
0.0238333,-0.125,-0.0948
0.03875,-0.1115,-0.01865
0.031,-0.1355,-0.0803
0.0157333,-0.1338333,-0.1718333
0.0024,-0.15395,-0.0932
-0.01205,-0.2067,-0.07605
-0.0041,-0.2211,-0.082
0.0325333,-0.2101667,-0.0550333
-0.0127,-0.1552,-0.01225
-0.0096,-0.121,-0.0528
-0.0338333,-0.1534667,-0.0657667
-0.0396,-0.19905,-0.0583
-0.02455,-0.18565,-0.0508
0.0086,-0.1897,0.0002
0.0145,-0.19645,0.00515
0.02255,-0.16765,-0.04335
0.03285,-0.13015,-0.05725
0.02915,-0.07675,-0.0736
0.0299,-0.10325,-0.0919
0.0165,-0.1473,-0.0797
-0.00395,-0.1987,-0.04695
-0.014,-0.21315,-0.02195
-0.0487,-0.22135,-0.01315
-0.07035,-0.1862,-0.0078
-0.08725,-0.11055,-0.0621
-0.05695,-0.0783,-0.0961
0.01325,-0.1708,-0.11515
0.05645,-0.28825,-0.03405
0.03185,-0.26515,-0.01045
0.0265,-0.1682,-0.0757
0.04965,-0.0697,-0.1313
0.03525,-0.0208,-0.12635
0.0079,-0.00185,-0.0721
0.02595,-0.12945,-0.1311
0.0547,-0.20395,-0.1228
0.0779,-0.20745,-0.07245
0.0588,-0.1575,-0.05165
0.05255,-0.0919,-0.0139
0.0347,-0.0876,-0.002
0.0007,-0.15205,0.0184
-0.0265,-0.132,0.02905
-0.03555,-0.07515,0.02465
-0.08755,-0.08345,-0.06055
-0.1132,-0.1283,-0.14945
-0.22505,-0.12205,-0.2461
-0.2225,-0.15935,-0.34855
-0.19045,-0.2113,-0.3539
-0.1546,-0.17325,-0.2741
-0.0598,-0.09885,-0.1518
0.0873333,-0.0693,-0.0294667
0.19,-0.0859,0.0497
0.2678,-0.14585,0.0696
0.2397667,-0.2713,0.0109
0.1524,-0.2782,-0.0341
0.0416667,-0.1702333,-0.0762333
-0.05105,-0.1556,-0.0928
-0.0883,-0.2115,-0.0784
-0.1167333,-0.2258333,-0.0517667
-0.07675,-0.20495,-0.08985
-0.0059,-0.1686,-0.1007
-0.0008,-0.144,-0.08695
0.00075,-0.14285,-0.0343
-0.0508,-0.1606,-0.0009
-0.102875,-0.18095,-0.0124
-0.1755,-0.19665,-0.0005
-0.1653,-0.22025,0.0411
-0.10185,-0.27555,0.0815
-0.0493,-0.2895,0.0777
-0.02115,-0.26145,0.065
0.01965,-0.2369,0.04415
0.0473,-0.19,0.00955
0.02435,-0.18225,-0.06705
-0.00945,-0.1209,-0.19915
-0.04835,-0.0845,-0.21165
0.01455,-0.21485,-0.1799
-0.0051,-0.17605,-0.1794
0.09455,-0.059,-0.1573
0.1436,-0.0631,-0.2109
0.05695,-0.11025,-0.3636
-0.10645,-0.1156,-0.44875
-0.2598,0.0081,-0.36465
-0.2106,-0.00735,-0.0644
0.01315,-0.0362,0.2434
0.1861,-0.0503,0.3853
0.3032,-0.1227667,0.2862667
0.2471,-0.3182,0.0311
0.10455,-0.4647,-0.09125
-0.01775,-0.4155,-0.1077
-0.14525,-0.14465,-0.0852
-0.16055,0.0464,-0.0394
-0.131,0.03375,-0.0411
-0.0698,-0.05905,-0.0659
-0.0377,-0.14615,-0.1298
-0.01335,-0.1714,-0.0982
0.00425,-0.16815,-0.06705
-0.02365,-0.1594,-0.0413
-0.03965,-0.1592,-0.0113
-0.01235,-0.18835,0.0126
0.0485,-0.1696,-0.0282
0.14605,-0.2038,-0.13005
0.22415,-0.2049,-0.13085
0.1684,-0.1450667,-0.1075
0.0538,-0.0786,-0.1146
-0.0285667,-0.0933333,-0.1345667
-0.06385,-0.15825,-0.14655
-0.0635,-0.1609,-0.1642
-0.0403667,-0.1663667,-0.1572
-0.0309,-0.1644,-0.128
-0.0337,-0.16045,-0.10515
-0.0534,-0.17835,-0.06415
-0.0575667,-0.1880333,-0.0190333
-0.0478,-0.2026,-0.0024
-0.0279667,-0.1868667,0.0001333
0.00415,-0.17855,-0.0383
0.00295,-0.1593,-0.05785
-0.0306,-0.1378,-0.07315
-0.0674,-0.1393,-0.0942
-0.0772,-0.12035,-0.12605
-0.0914667,-0.1231333,-0.1413
-0.05185,-0.1372,-0.1149
-0.01245,-0.1364,-0.1224
-0.0218,-0.151,-0.1099
-0.0071667,-0.1555667,-0.1017667
-0.0344,-0.14835,-0.08025
-0.02705,-0.14385,-0.07735
-0.00355,-0.1665,-0.06485
0.0128,-0.1607,-0.05365
0.0099,-0.1465,-0.08
-0.0069,-0.1206,-0.0871333
-0.0146,-0.1346,-0.04045
-0.00125,-0.1582,-0.03295
0.0087,-0.1263,-0.04875
0.01875,-0.1092,-0.0983
0.0263,-0.0814,-0.1234
0.024,-0.08725,-0.1088
0.0378,-0.1292,-0.10045
0.0272,-0.15375,-0.09445
0.03225,-0.1794,-0.07365
0.0328,-0.20335,-0.06675
-0.0154,-0.2031,-0.068
-0.04185,-0.1966,-0.08
-0.05495,-0.1591,-0.0675
-0.02755,-0.1295,-0.04865
-0.0081,-0.12145,-0.04675
0.0273,-0.1308,-0.0789
0.0434,-0.15785,-0.09595
0.02785,-0.17365,-0.0909
0.0183,-0.1778,-0.1238
0.0130333,-0.1764667,-0.1166333
0.0073,-0.14975,-0.09575
0.001,-0.117,-0.0737
-0.0072333,-0.1228667,-0.0849333
-0.01805,-0.17495,-0.08215
-0.04445,-0.18955,-0.0721
0.0094,-0.1547,-0.08915
0.0053,-0.14275,-0.0713
0.02635,-0.13695,-0.0855
0.0409,-0.1398,-0.111
0.0336667,-0.1722,-0.0926333
0.0165,-0.2072,-0.0761
0.011,-0.1915667,-0.0704
0.0114,-0.1747,-0.0761
-0.0021667,-0.1336333,-0.0851667
-0.0103,-0.13415,-0.0798
-0.02285,-0.1511,-0.0883
-0.00915,-0.16925,-0.05605
-0.019,-0.1819,-0.03825
-0.0236,-0.143,-0.0165
-0.01125,-0.11945,-0.002
-5e-05,-0.1193,-0.0236
-0.0042,-0.1732,-0.0604
-0.0008,-0.1662,-0.0758
0.0054667,-0.1516,-0.1199667
0.0059,-0.1528,-0.095
0.02365,-0.16395,-0.05785
0.00515,-0.12505,-0.04485
-0.0278,-0.11735,-0.0514
-0.0639,-0.1485,-0.0657
-0.02325,-0.19805,-0.03905
-0.02015,-0.2121,-0.03715
0.0121,-0.1885,-0.01645
0.0013,-0.17325,-0.01195
-0.0125,-0.15835,-0.00965
-0.01485,-0.17715,-0.0179
-0.0195,-0.18685,-0.04995
-0.01545,-0.16615,-0.06215
-0.0174,-0.1438,-0.0564
-0.01085,-0.13555,-0.08055
-0.0007,-0.1351,-0.0619
-0.00835,-0.15005,-0.07735
0.0101,-0.17645,-0.08365
-0.0035,-0.17735,-0.08925
-0.0063,-0.17745,-0.0666
-0.01685,-0.17205,-0.0626
-0.01235,-0.1432,-0.04575
0.00375,-0.136,-0.08415
0.0045,-0.1617,-0.11865
-0.0113,-0.1791,-0.06995
-0.02745,-0.16085,-0.10715
0.002,-0.16155,-0.11085
0.0141667,-0.1349333,-0.0698333
-0.0142,-0.1102,-0.0519
-0.0228667,-0.1208333,-0.0637667
-0.0092,-0.1895,-0.0429
-0.0055333,-0.2117,-0.039
0.0052,-0.2191,-0.0472
0.0019,-0.18865,-0.0563
-0.0012333,-0.1522333,-0.0608333
0.0004,-0.155,-0.0501
0.02065,-0.13265,-0.07225
0.00385,-0.1355,-0.0778
-0.0103333,-0.1591333,-0.0928
-0.0331,-0.1698,-0.0907
0.0121,-0.1755333,-0.0863333
0.0263,-0.1919,-0.0416
0.0165333,-0.1856667,-0.0621333
-0.00815,-0.1764,-0.07435
-0.0265,-0.1781,-0.0853
-0.0298667,-0.1739333,-0.0817667
-0.02195,-0.14565,-0.0559
-0.00925,-0.1758,-0.06495
-0.01275,-0.20205,-0.06425
-0.01115,-0.2012,-0.01715
-0.0043,-0.21855,-0.07415
0.0024,-0.2059,-0.0725
-0.017,-0.1779,-0.05225
-0.00885,-0.1274,-0.0347
-0.0221,-0.11625,-0.05365
-0.02725,-0.11115,-0.0792
-0.0075,-0.1354,-0.05865
0.01895,-0.1624,-0.05485
0.0333,-0.17245,-0.0522
0.05135,-0.1529,-0.06095
0.00655,-0.16465,-0.1085
-0.0052,-0.15565,-0.07915
-0.01545,-0.1623,-0.0565
-0.02535,-0.15585,-0.0619
-0.024,-0.15235,-0.09385
-0.0121,-0.14735,-0.0845
0.0004,-0.13155,-0.05285
-0.00445,-0.1252,-0.0511
-0.01395,-0.1312,-0.0937
0.0094,-0.19055,-0.1087
-0.00705,-0.1752,-0.07475
-0.0187,-0.1519,-0.10485
0.00505,-0.1604,-0.11055
0.0319,-0.14965,-0.07595
0.0005,-0.1284,-0.10545
-0.0374,-0.18925,-0.13035
-0.0183,-0.18275,-0.08235
0.0082,-0.164,-0.0703
0.02565,-0.1451,-0.0621
0.0504,-0.13455,-0.07085
0.0508333,-0.1567333,-0.0458
0.04055,-0.11,-0.0596
0.0086,-0.13825,-0.05595
-0.0151,-0.1595,-0.0631
0.0178667,-0.1670333,-0.0519
0.01565,-0.15125,-0.03535
0.0167,-0.1525,-0.0291
-0.0255667,-0.1471333,-0.0377
-0.03125,-0.13265,-0.07
-0.046,-0.1431,-0.0999
-0.0327,-0.1525,-0.1048
-0.0006667,-0.1552667,-0.0947
-0.0048,-0.1487,-0.1189
-0.0289,-0.1337333,-0.0655333
-0.1034,-0.15625,-0.03505
-0.1222,-0.1213,-0.0854
-0.0245333,-0.1421667,-0.1765333
0.06675,-0.17235,-0.15775
0.02475,-0.15195,-0.1056
-0.0328,-0.1292,-0.0966
-0.0655,-0.1474333,-0.0333667
-0.03765,-0.1664,0.04965
-0.0596,-0.15005,0.0138
-0.07745,-0.14335,-0.0516
-0.0773,-0.15205,-0.0951
-0.051,-0.14295,-0.1225
-0.0378,-0.12395,-0.1065
0.0052,-0.1181,-0.04265
0.0121,-0.1596,-0.0574
0.04215,-0.14665,-0.05135
0.0434,-0.1662333,-0.0381333
0.05495,-0.16795,-0.06195
0.0074,-0.15275,-0.09035
-0.0146,-0.1305,-0.112
-0.0026,-0.1328667,-0.1128333
0.0236,-0.1566,-0.0977
0.0281333,-0.1904333,-0.1017667
0.00985,-0.16965,-0.0702
-0.01055,-0.1535,-0.0481
-0.0035,-0.12195,-0.07805
0.0158,-0.1354,-0.10655
0.0175,-0.16595,-0.1095
0.02355,-0.18255,-0.0622
-0.01185,-0.1789,-0.07025
-0.01175,-0.1712,-0.07765
0.00835,-0.1287,-0.08665
0.0071,-0.0977,-0.0672
-0.01435,-0.0667,-0.10525
-0.0206333,-0.0890667,-0.134
-0.0132,-0.1411,-0.1195
-0.0237,-0.14375,-0.12155
0.0177333,-0.1449,-0.1109333
0.0541,-0.10205,-0.16605
0.04035,-0.0824,-0.1908
0.0397,-0.0791,-0.2209
0.01375,-0.0787,-0.2622
-0.0258,-0.10615,-0.2967
-0.0228,-0.1221,-0.3364333
-0.01075,-0.0891,-0.3843
0.02945,-0.10955,-0.4358
0.1052,-0.1675,-0.47255
0.1112,-0.19125,-0.5133
0.06795,-0.21925,-0.553
0.0034,-0.23215,-0.55115
-0.04625,-0.2462,-0.53185
-0.0756,-0.3649,-0.47455
-0.105,-0.46365,-0.38665
-0.05835,-0.54615,-0.3962
0.08615,-0.64205,-0.4613
0.2202,-0.66,-0.51195
0.23055,-0.66825,-0.4597
0.13435,-0.6311,-0.33265
0.1341,-0.69205,-0.2184
0.244,-0.6009,-0.15005
0.21055,-0.23395,-0.01135
0.2171,0.15915,0.0358
0.26675,0.2389,0.0254
0.3281,-0.1551,-0.2012
0.2594,-0.3059,-0.4383
0.0936,-0.56305,-0.2439
0.0572,-0.7383,0.1039
-0.0428667,-0.7987667,0.2966667
-0.2839,-0.6387,0.1558
-0.40265,-0.5482,0.0053
-0.45,-0.4668,0.0475
-0.5642,-0.3703,0.1883
-0.6676,-0.2726,0.2535
-0.6625,-0.2137,0.2324
-0.64,-0.19645,0.0562
-0.56975,-0.3562,-0.1636
-0.4269,-0.61175,-0.30835
-0.2083,-0.50295,-0.30745
0.0652667,0.0752333,-0.2256
0.39625,-0.3295,-0.2999
0.3168,-0.601,-0.3938
0.1801,-0.5662,-0.3998
0.1035333,-0.6761667,-0.1857
0.03145,-1.02975,-0.03795
0.0886,-1.42,-0.0411
0.0957,-1.80455,-0.3244
-0.60535,-2.26915,-0.35685
-1.47165,-2.6514,-0.51595
-1.16385,-1.76005,-0.38575
-0.7354,-0.7069,-0.4641
-0.4811,-0.43315,-0.4981
0.5038,-0.30935,-0.2446
1.27525,-0.09435,-0.07625
0.9328,0.0993,0.28985
0.0233,0.0204,0.4026
-0.54475,-0.539,0.23025
-0.6186,-0.9786,0.0798
-0.1933667,-1.2548667,-0.0016
0.5702,-1.35335,-0.0114
1.0025,-1.04325,-0.0549
0.98655,-0.7325,-0.09935
0.6182,-0.5993,-0.1874
0.1994,-0.3469667,-0.3141667
-0.15205,0.1185,-0.38885
-0.22455,0.6532,-0.45555
0.0049,1.07775,-0.47095
0.2315,1.1704,-0.4687
0.5808333,1.0179,-0.5447
0.74005,0.59165,-0.527
0.65815,0.215,-0.46585
0.43345,-0.19445,-0.44585
0.10625,-0.2727,-0.46045
-0.3189,0.4783667,-0.6385333
-0.10705,1.3813,-0.597
0.1014,1.8857,-0.4114
0.3298333,2.6768667,-0.0008333
0.42025,2.9937,0.37385
0.1053,2.4981,0.4199
-0.1943333,2.0332667,0.5138
-0.60405,1.43865,0.704
-0.796,1.5406,0.82775
-0.7312,1.7292,0.8533
-0.57195,1.76925,0.83145
-0.4065,1.2623,0.6757333
-0.21305,0.1782,0.61885
-0.13935,-0.76925,0.69035
-0.1567,-1.2895,0.7407
-0.1932,-1.5126,0.6287
-0.23515,-1.22165,0.34265
-0.25845,-0.76515,0.15835
-0.32225,-0.2545,0.0342
-0.2893,-0.0244,-0.051
-0.1832667,0.0409667,-0.1070333
0.09075,-0.0291,0.14365
0.2404,-0.3401,0.3075
0.26215,-0.5957,0.37005
0.2066,-0.7393,0.434
0.0792,-0.7391333,0.4702
0.00645,-0.57635,0.4145
-0.06845,-0.46745,0.3569
-0.1086,-0.35175,0.27715
-0.1006,-0.2522,0.2475
-0.10105,-0.22235,0.1539
-0.16695,-0.2533,0.0717
-0.2275,-0.32355,0.0549
-0.29275,-0.44345,0.11255
-0.30715,-0.56255,0.10135
-0.20405,-0.62755,0.1425
-0.0481,-0.6846,0.18005
0.0355,-0.62325,0.24375
0.03305,-0.3846,0.3116
-0.0176,-0.18815,0.2412
-0.13335,-0.1079,0.1679
-0.22685,-0.1779,0.14675
-0.2769,-0.316,0.1152
-0.23505,-0.4474,0.10325
-0.15905,-0.44145,0.14205
-0.11015,-0.3318,0.1279
0.0051,-0.2679,0.17415
0.10235,-0.11775,0.1918
0.1553,-0.01495,0.27145
0.2748,-0.0882,0.35955
0.3092,-0.19985,0.4365
0.0797667,-0.1317333,0.287
-0.20135,-0.05575,-0.25525
-0.3665,-0.16,-0.7956
-0.6325333,-0.5227333,-1.0931667
-0.5603,-0.6317,-0.916
-0.1511,0.0081667,-0.5374
0.20345,0.2198,-0.17695
0.2315,0.0411,0.097
0.0624,-0.1256333,0.3830333
-0.2285,-0.1803,0.3824
-0.2829667,-0.1832,0.2514333
-0.1699,-0.0896,0.0624
-0.08135,-0.1771,0.01005
-0.0499,-0.3165,0.0263
-0.0822,-0.3365667,0.1175667
-0.07605,-0.20305,0.11025
0.0809,-0.0314,-0.0659
0.37405,0.09885,-0.2467
0.5521,0.2006,-0.361
0.5526333,0.1941,-0.4098667
0.1273,0.111,-0.3993
-0.1753,0.01655,-0.36575
-0.3143,-0.02395,-0.3627
-0.19815,0.00245,-0.313
-0.01955,0.0703,-0.27145
0.1578,0.1434,-0.19645
0.2168,0.1816,-0.06665
0.2591,0.1462,0.06245
0.18015,0.06395,0.0859
-0.01935,-0.08875,-0.03135
-0.1636,-0.1424,-0.29625
-0.31085,-0.0803,-0.41465
-0.4233,-0.2208,-0.5184
-0.4079,-0.2753,-0.43925
-0.237,-0.0887,-0.2555
-0.0965,0.09175,-0.15155
-0.051,0.18255,-0.15515
-0.1353,0.23525,-0.24665
-0.2034,0.19955,-0.3049
-0.15815,0.08525,-0.3312
-0.1046,-0.0727,-0.4091
-0.02065,-0.11595,-0.32195
0.03725,-0.0927,-0.17155
0.051,-0.1274,0.03645
-0.0263,-0.2152,0.2323
-0.07415,-0.2975,0.19245
0.0472,-0.3576,-0.02975
0.15935,-0.02445,-0.11205
0.16595,0.29725,-0.0339
0.0481,0.1875667,-0.0041333
0.027,-0.03,-0.04605
0.026,-0.1751,-0.10955
0.0104,-0.2353,-0.1257
-0.0067,-0.2238,-0.1431
-0.0466,-0.1254333,-0.1776
-0.08175,-0.00535,-0.1451
-0.084,0.02105,-0.1208
-0.0813,0.023,-0.1402
-0.0068667,0.0121667,-0.1253
0.0472,0.0511,-0.1193
0.0301667,0.0699,-0.1562333
-0.0055,-0.02005,-0.21525
-0.01935,-0.096,-0.25195
-0.03475,-0.1488,-0.25765
-0.0303,-0.2044,-0.2426
-0.0373333,-0.1561667,-0.1777
0.00435,-0.0447,-0.0422
0.0247,-0.00445,0.00815
-0.00495,-0.0403,0.03025
-0.0197,-0.0399,0.0284
-0.0252667,-0.0497667,-0.0098333
-0.0434,-0.07485,-0.07395
-0.0544,-0.12285,-0.09505
-0.0448,-0.18665,-0.09845
-0.03095,-0.1843,-0.09565
-0.03355,-0.12985,-0.0979
-0.03245,-0.0624,-0.1012
-0.0425,-0.03665,-0.1026
-0.04455,-0.03785,-0.10925
-0.0467,-0.0313,-0.0888
-0.04595,-0.0071,-0.083
-0.021,-0.0286667,-0.1340333
-0.02675,-0.0828,-0.07595
-0.03375,-0.1226,-0.08735
-0.0174,-0.17955,-0.0555
0.0013,-0.14755,-0.0355
0.02235,-0.0399,-0.0437
0.0071,-0.00365,-0.0802
0.00065,-0.0404,-0.09485
-0.01455,-0.086,-0.0951
-0.0165,-0.10955,-0.11495
-0.0062,-0.1532,-0.12685
0.009,-0.10625,-0.14935
-0.0153,-0.021,-0.21245
-0.0237,-0.00755,-0.22755
-0.0143,-0.05515,-0.14495
-0.01005,-0.06975,-0.04975
-0.0041,-0.0819,0.0001
-0.00935,-0.0786,-0.00825
-0.0023,-0.08745,-0.055
0.0083333,-0.1207667,-0.0743333
-0.0226,-0.1686,-0.09545
-0.06245,-0.17265,-0.10805
-0.0652,-0.1491,-0.0798
-0.0446,-0.11585,-0.08075
0.0059667,-0.0376,-0.0781333
0.03095,0.0209,-0.07515
0.0041,0.0285,-0.1208
-0.0254,-0.0185,-0.1379
-0.0290667,-0.1404667,-0.0594
-0.0233,-0.2034,-0.1051
0.02505,-0.19395,-0.11
0.03765,-0.0869,-0.0914
0.0304,-0.007,-0.09075
0.00405,-0.04105,-0.07605
-0.0143,-0.09465,-0.0743
-0.03235,-0.1356,-0.04895
-0.03695,-0.16525,-0.07165
-0.0247,-0.15175,-0.09935
-0.0437,-0.1261,-0.0774
-0.0253333,-0.0577667,-0.1078
-0.01705,-0.0159,-0.1186
-0.00955,-0.08,-0.0785
-0.0096,-0.1219,-0.05155
-0.0073,-0.1269,-0.03415
0.0151,-0.1469,-0.0382
0.0168333,-0.1196667,-0.0695667
0.0137,-0.0824,-0.08355
-0.0124,-0.07575,-0.0893
0.0023,-0.10285,-0.0844
-0.0057,-0.10655,-0.0988
-0.00265,-0.1073,-0.08635
0.00515,-0.0781,-0.10655
0.0015,-0.05335,-0.06675
0.0225,-0.06195,-0.0579
0.0084,-0.0826,-0.09015
0.0008,-0.11745,-0.06335
-0.0332,-0.09435,-0.11775
-0.06265,-0.1266,-0.13295
-0.06705,-0.1018,-0.1088
-0.03465,-0.00215,-0.07885
-0.0063,0.0259,-0.0793
0.0044,-0.0323,-0.0829
0.00325,-0.10805,-0.09215
-0.001,-0.1537,-0.0569
-0.0082,-0.15785,-0.0824
-0.00775,-0.11835,-0.0992
0.02225,-0.073,-0.11205
0.04075,-0.06755,-0.14625
0.0479,-0.08955,-0.1345
0.03175,-0.1317,-0.11615
0.01515,-0.1329,-0.08065
0.0003667,-0.0662667,-0.065
-0.01125,-0.0551,-0.0668
-0.0242,-0.0524,-0.0941
-0.0477,-0.0544333,-0.0757
-0.07655,-0.0491,-0.03435
-0.08785,-0.0232,-0.04015
-0.05125,-0.0732,-0.05965
-0.0279,-0.1159,-0.0817
-0.0024,-0.1325,-0.1083
-0.001,-0.1430333,-0.0978
0.0226,-0.1072667,-0.0738
0.03,-0.0601,-0.0728
0.0244667,-0.0646,-0.0925333
0.0471,-0.12295,-0.06245
0.039,-0.16035,-0.13435
0.04215,-0.19595,-0.0817
0.0328,-0.13555,-0.08945
-0.0001,-0.04055,-0.07205
-0.0142,-0.0197,-0.06775
-0.0277,-0.05925,-0.0523
-0.02645,-0.07185,-0.0319
-0.04265,-0.1175,-0.0342
-0.0475,-0.13435,-0.09195
-0.0397,-0.10155,-0.10705
-0.02965,-0.0635,-0.12
-0.0042,-0.0523,-0.1082
0.0077,-0.0728,-0.07915
0.0181,-0.1102,-0.0647
0.0172667,-0.1220333,-0.0571333
0.0392,-0.09725,-0.03515
0.0742,-0.0271,-0.06285
0.076,-0.0153,-0.08425
0.09585,-0.04505,-0.1371
0.10935,-0.0857,-0.1636
0.12745,-0.08425,-0.1651
0.098,-0.085,-0.15945
0.12255,-0.123,-0.1386
0.09795,-0.13125,-0.14145
-0.08905,-0.05295,-0.1085
-0.27295,0.01315,-0.0084
-0.35275,0.01785,0.07985
-0.37285,-0.07735,0.1193
-0.3467,-0.1472,-0.01615
-0.2536,-0.154,-0.0625
-0.1065,-0.12665,-0.10625
0.0663,-0.1288,-0.1148
0.1654,-0.15595,-0.04665
0.2531333,-0.1000667,-0.0303667
0.2116,-0.0263,-0.0491
0.16315,0.0275,-0.1298
0.1171333,0.1227667,-0.2344
0.062,0.04755,-0.21585
0.0126,-0.0654,-0.145
-0.03005,-0.1346,-0.0929
-0.0428,-0.2346,0.0057
-0.0098,-0.2576,0.0054667
0.06365,-0.28045,0.0172
0.04765,-0.2354,0.0602
0.0107,-0.2074,0.0991
-0.0716,-0.1339333,0.0763
-0.1247,-0.06175,-0.00695
-0.1207,-0.0769,-0.0927
-0.01595,-0.12755,-0.1549
0.0787,-0.1365,-0.2101
0.1305,-0.0982333,-0.2383333
0.17945,-0.05705,-0.24255
0.15595,-0.04335,-0.20165
0.1123,-0.0236,-0.12835
0.07275,-0.05205,-0.04415
-0.0156,-0.07365,0.0132
-0.1066,-0.0949,0.0193
-0.18935,-0.11295,0.04635
-0.2168,-0.1236,0.0005
-0.1945,-0.1542,-0.0041
-0.11875,-0.16085,-0.0523
-0.1077,-0.1147,-0.12065
-0.0957,-0.0622,-0.183
-0.0546,-0.0344,-0.2284
-0.0132667,0.0028667,-0.2603667
0.05355,0.0383,-0.2521
0.112,0.02055,-0.20305
0.1303,-0.00745,-0.088
0.1221,-0.01645,-0.02315
0.0816,0.0051,-0.03285
0.07935,-0.0144,-0.0342
0.0928,-0.08925,-0.08035
0.0986,-0.2088,-0.09385
0.0996,-0.2642,-0.0414
0.0825,-0.17455,-0.03675
0.0441,-0.0416,-0.0521
0.0046,0.00815,-0.07835
-0.01425,-0.0453,-0.09245
-0.07075,-0.1313,-0.14855
-0.08255,-0.1619,-0.1804
-0.05675,-0.17205,-0.1747
-0.05765,-0.125,-0.1429
-0.0554,-0.07565,-0.1082
-0.0326,-0.0836,-0.0695
-0.01135,-0.12165,-0.0196
0.0074,-0.1399667,0.0038667
0.0476,-0.1176,-0.0162
0.0526,-0.0841,-0.0797667
0.04415,-0.0809,-0.0892
0.0336,-0.0954,-0.0607
-0.0175,-0.0981333,-0.1228333
-0.0686,-0.1161,-0.1388
-0.0453,-0.1191,-0.1302333
-0.0276,-0.0451,-0.15
-0.0407,0.0012,-0.1606
-0.0294,0.0101,-0.142
-0.01765,-0.1141,-0.06625
0.0056,-0.20095,-0.0077
-0.02095,-0.19645,0.0225
-0.0331,-0.134,0.0282
-0.0532667,-0.0604333,-0.0083667
-0.0443,-0.01975,-0.10275
-0.0668,-0.0636,-0.1318
-0.0106,-0.0871,-0.1871
0.0515,-0.0753,-0.2954
0.0543,-0.0234,-0.332
0.0471667,-0.0818333,-0.2487333
0.0931,-0.2125,-0.04065
0.17045,-0.218,0.07585
0.18655,-0.139,0.1225
0.11055,-0.08605,0.103
0.044,-0.02935,0.0247
-0.06025,0.0473,-0.0618
-0.192,0.0527,-0.0905
-0.2327,0.0170333,-0.1018667
-0.1642,0.0594,-0.125
-0.1613,0.1365,-0.2025
-0.12545,0.0533,-0.25825
-0.06105,-0.09835,-0.15565
0.0064,-0.16305,-0.13715
0.04335,-0.19885,-0.11125
0.13435,-0.259,-0.07435
0.1985,-0.2792,-0.04385
0.2324,-0.19285,-0.0019
0.17545,-0.0924,0.02525
0.1772,-0.0382,0.0228
0.12395,-0.04795,0.04475
0.03515,-0.147,-0.0227
-0.03765,-0.19765,-0.00245
-0.0988,-0.1742,0.03055
-0.16965,-0.10795,0.0563
-0.0886,0.0953,0.14915
-0.00755,0.1149,0.02375
-0.036,-0.1589,-0.32085
-0.18815,-0.2238,-0.3929
-0.34755,-0.1975,-0.2324
-0.44275,-0.3155,-0.23115
-0.1756,-0.394,-0.193
0.1709333,0.0004,0.0249333
0.3402,0.25185,0.17935
0.31,0.2373,0.1436
0.1338,0.0642333,0.052
0.0049,-0.0365,-0.0775
-0.0759667,-0.0962333,-0.1456
-0.01615,-0.1798,-0.30455
0.0175,-0.172,-0.335
0.06015,-0.13065,-0.291
0.05765,-0.0646,-0.0921
0.0129,-0.0421,0.0272
-0.0508,-0.1718,0.067525
-0.03415,-0.1613,0.0653
0.00655,-0.0221,0.03
0.01825,0.0285,-0.0664
-0.0245,-0.02055,-0.1557
-0.0716,-0.0663,-0.18415
-0.0583,-0.09325,-0.1868
-0.0911,-0.10525,-0.2159
-0.0697,-0.0846,-0.16555
-0.03385,-0.0472,-0.152
-0.0368,-0.036,-0.14055
-0.02845,-0.0968,-0.10805
-0.01725,-0.1168,-0.0602
-0.0289,-0.11775,-0.03295
0.0063,-0.1272,-0.0379
0.0140333,-0.1003,-0.0464333
0.02705,-0.07355,-0.09575
0.02825,-0.0757,-0.13135
0.0381,-0.08175,-0.1443
0.027,-0.0942,-0.1377
0.01715,-0.10915,-0.13405
0.00885,-0.11925,-0.123
0.006,-0.10595,-0.11175
0.00765,-0.0897,-0.08735
-0.00795,-0.0515,-0.05895
-0.02885,-0.02135,-0.04355
-0.0412,-0.0007,-0.0656
-0.0489333,-0.0168667,0.0046
-0.04055,-0.0907,-0.08915
-0.02925,-0.13385,-0.148
0.01405,-0.14345,-0.17895
0.0166,-0.087,-0.1496
0.0185333,-0.0176667,-0.1220667
-0.0174,-0.03335,-0.06865
-0.0340667,-0.071,-0.0506667
-0.02925,-0.1087,-0.0432
-0.0243,-0.1153,-0.1303
-0.0142333,-0.0928667,-0.1524333
-0.0004,-0.054,-0.1796
-0.0168,-0.0384,-0.1653
-0.0219667,-0.1039,-0.0950667
-0.0219,-0.1017,-0.01185
-0.0261,-0.0927,0.0075
0.01025,-0.0792,-0.00795
0.0238333,-0.0926,-0.0500333
0.03835,-0.143,-0.0808
0.0244,-0.1613,-0.0649
0.0044,-0.149,-0.0475333
-0.0402,-0.1489,-0.0444
-0.0204333,-0.1290333,-0.0447
-0.01755,-0.11985,-0.06805
-0.017,-0.1314,-0.0973
-0.0041,-0.0818,-0.1048
-0.00605,-0.0557,-0.0847
-0.0144,-0.06005,-0.10225
-0.0131,-0.04335,-0.048
-0.0143,-0.0621,-0.0152
-0.0226667,-0.1048667,-0.0806667
-0.0016,-0.1684,-0.11245
0.0026,-0.15195,-0.1085
-0.0021,-0.09835,-0.0886
-0.02015,-0.03375,-0.0702
-0.03155,-0.0309,-0.0623
-0.0285,-0.06245,-0.0611
-0.0042,-0.0806,-0.0284
-0.0104667,-0.1126,-0.0378
-0.0089,-0.1248,-0.0343
0.0047667,-0.0980667,-0.0796
0.02655,-0.0874,-0.11455
0.0047,-0.10225,-0.107
0.00515,-0.10915,-0.1015
-0.0068,-0.0848,-0.0806
-0.0071333,-0.0584333,-0.066
-0.00725,-0.03975,-0.0712
0.00475,-0.0737,-0.0957
-0.0021,-0.06315,-0.1208
-0.01695,-0.0476,-0.1269
-0.02185,-0.03755,-0.1319
-0.0068,-0.08605,-0.12625
0.021,-0.1137,-0.0984
0.01365,-0.10475,-0.10785
0.01875,-0.1006,-0.08595
0.00335,-0.048,-0.0814
-0.02295,-0.00875,-0.0579
-0.05325,-0.0027,-0.07975
-0.05335,-0.0255,-0.0415
-0.02325,-0.0968,-0.0622
-0.03005,-0.14375,-0.1208
-0.0383,-0.16045,-0.13535
-0.02755,-0.14595,-0.1085
-0.01805,-0.07855,-0.1124
0.0076333,-0.0461333,-0.0980667
0.0297,-0.0728,-0.1
0.043,-0.05985,-0.09085
0.02675,-0.0617,-0.07035
0.0194333,-0.0741333,-0.1080667
0.025,-0.0745,-0.0824
0.0193333,-0.0772667,-0.1102667
0.00565,-0.07665,-0.10825
-0.0275,-0.0702,-0.07485
-0.0299,-0.07785,-0.06815
-0.0379,-0.1026,-0.0566
-0.0294667,-0.1236333,-0.0682333
-0.0363,-0.1563,-0.0649
-0.0312,-0.1601,-0.0881333
-0.0261,-0.11575,-0.077
-0.0159,-0.0844,-0.08685
-0.0212,-0.04965,-0.06645
-0.0095,-0.05315,-0.04735
0.01635,-0.07615,-0.0433
0.0025,-0.10465,-0.05635
0.0184,-0.116,-0.06
0.0227,-0.0946333,-0.0740333
0.0078,-0.0753,-0.10765
-0.0005,-0.0503,-0.1427
-0.0063333,-0.0571,-0.0853667
0.00185,-0.11415,-0.09215
-0.0078,-0.1585,-0.12145
0.00605,-0.15135,-0.1252
0.00185,-0.0645,-0.0997
-0.0235,0.00075,-0.08085
-0.03955,-0.0168,-0.07845
-0.027,-0.06725,-0.0705
-0.0079,-0.1476,-0.03585
-0.0083,-0.1561,-0.062
-0.0047,-0.09515,-0.05825
0.00515,-0.05355,-0.08105
0.01005,-0.06355,-0.07955
0.0049,-0.08665,-0.07685
-0.00325,-0.09855,-0.05995
-0.02495,-0.10925,-0.07
-0.0147,-0.10605,-0.0801
0.0049,-0.106,-0.1162
0.0112,-0.1009333,-0.0988333
0.0022,-0.0682,-0.0706
0.01665,-0.06175,-0.09
0.0039,-0.0384,-0.0998
-0.0073333,-0.0396667,-0.0983333
-0.01385,-0.05305,-0.1122
-0.0203,-0.1117,-0.1011
-0.0056,-0.161,-0.0842
0.0012,-0.1387333,-0.0714333
0.0007,-0.0568,-0.0509
0.0023,-0.0096,-0.0275
-0.02425,-0.025,-0.06
-0.0133,-0.0678,-0.0736
-0.0043333,-0.1367333,-0.0699
-0.0114,-0.1896,-0.1124
0.0021,-0.1488333,-0.0980667
0.0043,-0.05715,-0.0877
0.0012,0.00825,-0.075
-0.019,-0.0187,-0.0953
-0.0397667,-0.0705,-0.0820667
-0.0497,-0.1185,-0.0609
-0.0483,-0.1284333,-0.0582667
-0.02975,-0.0816,-0.06985
0.01985,-0.0185,-0.0781
0.0621,-0.00575,-0.11765
0.0421,-0.084,-0.12465
0.0336,-0.15625,-0.11935
0.0026,-0.1671,-0.09405
0.01655,-0.1505,-0.0881
0.01175,-0.12675,-0.0669
0.0201,-0.094,-0.08165
0.0323,-0.0805,-0.0487
-0.0040667,-0.0694667,-0.0649333
-0.01005,-0.0484,-0.06795
-0.0211,-0.0621,-0.0813
-0.0346,-0.1176,-0.0933
-0.0131,-0.12935,-0.1126
-0.0213,-0.1622,-0.1078
-0.01745,-0.1075,-0.1354
0.00965,-0.06005,-0.10625
0.02095,-0.00415,-0.1092
0.00065,-0.00675,-0.12545
-0.0268,-0.0436,-0.0768
-0.0639,-0.09895,-0.0382
-0.03075,-0.13055,-0.0616
-0.00885,-0.1524,-0.06195
-0.00155,-0.1192,-0.06035
-0.00125,-0.0679,-0.0782
-0.01455,-0.068,-0.08175
-0.02215,-0.11495,-0.0649
-0.00205,-0.1468,-0.07775
-0.00585,-0.14735,-0.04265
0.0139,-0.0953,-0.0843
0.0078,-0.05435,-0.0796
0.0106,-0.02575,-0.09895
0.0124,-0.0871,-0.09345
0.01065,-0.13675,-0.0742
0.0036,-0.12755,-0.06185
0.00815,-0.09645,-0.0475
0.00405,-0.0904,-0.0605
-0.0132333,-0.0897,-0.0692
-0.0084,-0.0875,-0.076
-0.00325,-0.0935,-0.1055
0.0069,-0.0753,-0.0962
-0.0065667,-0.0923333,-0.1107333
-0.0068,-0.0984,-0.1144
-0.0069333,-0.1067333,-0.0994667
0.0049,-0.0808,-0.0722
-0.0001667,-0.0650333,-0.0701667
0.0034,-0.0521,-0.0678
-0.0178,-0.0408,-0.0810333
-0.0227,-0.05045,-0.0844
-0.00075,-0.09825,-0.0453
-0.01005,-0.15345,-0.09165
-0.0015,-0.17265,-0.0872
0.0003,-0.1644,-0.0749
-0.0024,-0.0787,-0.0678
-0.02435,-0.02195,-0.0659
-0.00905,-0.05885,-0.0464
-0.0074,-0.0827,-0.0435
0.0059,-0.1002667,-0.0415667
-0.0085,-0.1181,-0.0833
-0.0232667,-0.1128333,-0.0899
-0.0028,-0.10735,-0.09065
0.0021,-0.0852,-0.1133
-0.0041333,-0.0630667,-0.0939
-0.0273,-0.05975,-0.0823
-0.0127,-0.0769,-0.1
-0.0145333,-0.0832667,-0.0987333
-0.01565,-0.11275,-0.10535
-0.0104,-0.10205,-0.0745
0.0065,-0.1032,-0.0723
0.00495,-0.09595,-0.091
-0.00055,-0.08515,-0.09335
0.0025,-0.0821,-0.07375
0.0053,-0.0785,-0.0928
0.0057,-0.0848333,-0.0714667
0.0075,-0.1035,-0.0497
-0.0046,-0.097,-0.06255
-0.01475,-0.06875,-0.0937
-0.02205,-0.05075,-0.09645
-0.01585,-0.05205,-0.1439
-0.0201,-0.0705,-0.1238
-0.01105,-0.1265,-0.08315
-0.0349,-0.11925,-0.1134
-0.0231,-0.10055,-0.096
0.0097333,-0.0476,-0.0965333
0.01975,-0.0324,-0.08015
0.0074,-0.06325,-0.0718
0.0176,-0.0855,-0.0907
0.0398333,-0.1409333,-0.0391333
0.05665,-0.1396,-0.0185
0.0335,-0.0727,-0.06555
-0.02585,-0.0236,-0.08905
-0.0329,-0.03495,-0.1325
-0.06525,-0.0762,-0.10635
-0.0852,-0.1143,-0.0765
-0.0816,-0.12665,-0.0867
-0.07445,-0.10105,-0.0842
-0.0297,-0.05925,-0.0973
0.00535,-0.05895,-0.088
0.01075,-0.10305,-0.1192
0.0226,-0.158,-0.1185
0.0492667,-0.1036333,-0.1006
0.06515,-0.00935,-0.1052
0.0474,-0.0009,-0.13055
0.046,-0.043,-0.1589
0.0589,-0.09595,-0.1437
0.03935,-0.17535,-0.09
0.0083,-0.2012,0.00405
-0.04245,-0.1306,0.0326
-0.0771,-0.1013,0.0416
-0.1142,-0.0496333,-0.0494
-0.12735,-0.0204,-0.08695
-0.1146,-0.098,-0.11405
-0.11825,-0.1518,-0.12295
-0.0589,-0.1465,-0.1001
0.0164,-0.10025,-0.0918
0.0344,-0.01585,-0.0893
0.0255,-0.0583,-0.12235
0.03655,-0.09995,-0.12615
0.05945,-0.12425,-0.09775
0.087,-0.13335,-0.0887
0.10685,-0.09245,-0.1006
0.0762,-0.08045,-0.07325
0.053,-0.05885,-0.047
0.0355,-0.08015,-0.02635
0.03035,-0.1063,-0.0002
0.0134,-0.1054,0.00385
-0.0082,-0.1002,-0.0353
-0.0314,-0.12205,-0.07315
-0.0152,-0.12725,-0.089
-0.03195,-0.1359,-0.06255
-0.04455,-0.14345,-0.0638
-0.09865,-0.10805,-0.0886
-0.1146,-0.0759,-0.11275
-0.08625,-0.07085,-0.1305
-0.0217,-0.0422667,-0.1019333
0.0171,-0.0582,-0.0721
0.0121,-0.0795,-0.0557
0.0106,-0.05275,-0.05025
0.03515,-0.0064,-0.08425
0.0528333,0.0521,-0.1799
0.0599,0.0862,-0.1933
0.0766,0.0206,-0.1432
0.0564,-0.1332667,-0.1263
0.0174,-0.19755,-0.0969
-0.013,-0.08645,-0.10045
-0.02945,-0.00445,-0.077
-0.0452,-0.1885,-0.0532
-0.095,-0.2469,-0.04835
-0.05275,-0.1777,-0.0315
-0.0611,-0.1392,-0.0289
-0.0795,-0.06865,-0.03965
-0.0903,-0.013,-0.0065
-0.0191667,-0.0780333,-0.0112
0.02525,-0.1876,-0.03065
0.0308,-0.204,-0.07245
0.0004,-0.15885,-0.10775
-0.0346,-0.12365,-0.12805
-0.0437,-0.117,-0.1163
-0.0134,-0.1163,-0.0986
0.0183667,-0.0884667,-0.0788333
0.01775,-0.0597,-0.1033
0.0279,-0.03185,-0.1147
0.0141,-0.0499,-0.1467
0.0305,-0.0406667,-0.1445
0.00695,-0.09445,-0.14425
-0.009,-0.1097,-0.1395
-0.0187,-0.08875,-0.1256
-0.03425,-0.0522,-0.1198
-0.0305,-0.0358,-0.09055
-0.0069,-0.04695,-0.0658
0.0294,-0.10385,0.00535
0.0601,-0.1602,-0.01415
0.04155,-0.18235,-0.0378
0.0025,-0.13835,-0.05315
-0.0238,-0.04105,-0.08035
-0.01125,-0.0462,-0.10755
-0.00595,-0.11675,-0.1347
-0.01415,-0.16515,-0.10515
-0.01855,-0.1695,-0.10465
-0.0394,-0.09045,-0.1181
-0.02295,-0.02535,-0.11535
-0.01735,-0.0133,-0.11485
-0.0036,-0.06025,-0.09355
-0.0067,-0.13885,-0.0685
0.0011,-0.14285,-0.06145
0.0191667,-0.1179667,-0.0552333
0.00925,-0.1284,-0.0836
0.0031,-0.1166,-0.0611
0.0047,-0.0853,-0.0633
0.0099667,-0.0593,-0.0897
0.00425,-0.04035,-0.1183
-0.0017,-0.0654,-0.13015
-0.0088,-0.1026,-0.1035
-0.0233,-0.1325667,-0.0874333
-0.0316,-0.1288,-0.06775
-0.01675,-0.0926,-0.05925
-0.0018,-0.07405,-0.0619
-0.01285,-0.0411,-0.0855
-0.0194,-0.0834,-0.0394
-0.0071333,-0.1216667,-0.0553333
-0.0259,-0.14095,-0.09405
-0.0083,-0.1238,-0.0959
0.01285,-0.0841,-0.0969
0.0008,-0.02145,-0.08625
-0.0092,-0.04135,-0.08075
-0.03465,-0.10775,-0.0923
-0.0201,-0.0831,-0.0617
-0.0244,-0.1273,-0.0813
-0.0051,-0.1197,-0.1039
-0.0121,-0.1152333,-0.0731
0.0106,-0.0833,-0.0803
0.01235,-0.0826,-0.08195
-0.0015,-0.09955,-0.05425
-0.0165,-0.1139,-0.0529
0.00695,-0.1137,-0.0596
0.00945,-0.1047,-0.06145
0.00715,-0.1094,-0.06425
-0.00735,-0.1252,-0.0682
-0.00965,-0.09965,-0.06475
-0.01625,-0.0835,-0.05435
-0.01105,-0.0724,-0.03795
-0.00895,-0.0596,-0.07625
-0.00865,-0.08735,-0.0875
-0.0195,-0.10745,-0.10025
-0.02405,-0.11065,-0.10065
-0.0099,-0.11735,-0.08825
-0.02375,-0.06075,-0.13255
-0.02215,-0.03705,-0.0864
-0.01065,-0.03215,-0.1092
-0.0063,-0.0722,-0.1338
-0.00135,-0.1395,-0.1316
0.00495,-0.1022,-0.09935
-0.0011,-0.05495,-0.06405
-0.02855,-0.0558,-0.06285
-0.02525,-0.0735,-0.02415
-0.0125333,-0.1032333,-0.054
-0.0157,-0.1419,-0.1117
-0.01845,-0.12815,-0.11575
-0.02405,-0.12675,-0.1054
-0.0098,-0.0908667,-0.1057
-0.0027,-0.0921,-0.1055
0.0094,-0.0751,-0.0692667
0.00565,-0.05905,-0.04095
0.0409,-0.0395,-0.0231
0.0149667,-0.0749333,-0.0544
0.01385,-0.09775,-0.08435
-0.01285,-0.098,-0.10105
-0.0261,-0.09475,-0.1218
-0.02925,-0.07525,-0.1304
-0.0244,-0.0817,-0.1175
-0.0107,-0.09875,-0.09255
-0.0074,-0.1218,-0.07505
-0.0218,-0.08565,-0.0291
-0.00475,-0.04215,-0.01965
0.003,-0.054,-0.0431
-0.0022,-0.0755,-0.10845
0.0044,-0.11345,-0.0609
0.0025,-0.1789,-0.079
-0.0251,-0.1867,-0.1105
-0.0092667,-0.1598,-0.1089333
-0.0229,-0.04735,-0.1017
-0.02025,0.0141,-0.097
-0.0121,-0.02335,-0.09565
-0.0058,-0.0761,-0.0907
-0.0153333,-0.1159,-0.0638667
-0.02195,-0.15515,-0.0805
-0.00945,-0.12575,-0.1089
-0.0024,-0.0864,-0.08695
0.00275,-0.0644,-0.0919
0.0158,-0.0894,-0.08115
-0.00135,-0.1139,-0.05955
-0.00735,-0.1121,-0.0412
-0.0072,-0.1089,-0.033
-0.0011,-0.1163,-0.039
-0.0009667,-0.0948333,-0.0514333
-0.0134,-0.08555,-0.0596
-0.014,-0.08065,-0.0707
-0.01035,-0.0755,-0.098
-0.00325,-0.066,-0.1155
-0.0127,-0.0926,-0.13995
-0.00455,-0.11815,-0.1236
-0.0095,-0.11385,-0.1212
-0.0119,-0.0698,-0.097
0.00905,-0.0337,-0.0868
0.0029667,-0.0377333,-0.1353667
-0.0099,-0.0409,-0.0793
-0.0088333,-0.0908667,-0.0872333
-0.01295,-0.13255,-0.13135
0.0088,-0.1063,-0.1202
0.00155,-0.0636,-0.1097
-0.0096333,0.0158667,-0.0543667
-0.04915,-0.0164,-0.0235
-0.0345,-0.09385,-0.03845
-0.0316,-0.1399,-0.0493
-0.0182,-0.2068,-0.07285
-0.0022,-0.2236,-0.1096
0.0023,-0.1686,-0.0625
-0.0053,-0.10735,-0.07195
0.0088,-0.0851,-0.0588
-0.0064,-0.0913667,-0.0675
0.0047,-0.0641,-0.0706
-0.0013,-0.0603,-0.1056
-0.0064,-0.0666,-0.1245
-0.0034,-0.084,-0.12
-0.0044667,-0.1076,-0.1327667
0.0025,-0.1089,-0.12575
-0.0102,-0.09245,-0.08195
-0.0187,-0.08,-0.08345
-0.035,-0.0635,-0.0638
-0.0167333,-0.0909,-0.084
0.00305,-0.0633,-0.0607
-0.01125,-0.0663,-0.0635
-0.03725,-0.07975,-0.06765
-0.03255,-0.1029,-0.0492
-0.00825,-0.1441,-0.02935
-0.0045,-0.1578,-0.05975
0.0063,-0.1916,-0.0847
0.0035,-0.111,-0.078
-0.01425,-0.0241,-0.0716
-0.03315,-0.02125,-0.07945
-0.01435,-0.06205,-0.0982
0.00815,-0.0913,-0.0926
0.0092,-0.1224,-0.10625
0.0157,-0.0955,-0.1219
0.0149,-0.0532,-0.1033
-0.0006333,-0.0431333,-0.1072667
-0.02125,-0.08055,-0.1149
-0.01305,-0.1153,-0.085
-0.0098,-0.11165,-0.0793
-0.0074,-0.0954,-0.0743
-0.0184,-0.0986667,-0.0676667
-0.02635,-0.0958,-0.071
-0.0304,-0.07995,-0.0526
-0.04335,-0.09635,-0.08
-0.0182,-0.1009,-0.0676
-0.0007,-0.11865,-0.06705
0.0081,-0.12,-0.04395
0.01085,-0.1292,-0.06795
0.0184333,-0.113,-0.061
0.024,-0.0884,-0.0953
0.0303,-0.09465,-0.12245
0.0280667,-0.0256333,-0.1471667
0.00625,-0.0168,-0.0623
0.0011,-0.08585,-0.07515
-0.0093,-0.1058,-0.0534
-0.00435,-0.114,-0.04505
-0.0259,-0.0756667,-0.0410667
-0.064,-0.06495,-0.0785
-0.0741,-0.0962,-0.122
-0.0631,-0.1097,-0.1512
-0.0605333,-0.1361,-0.1548
-0.05335,-0.13795,-0.151
-0.0408,-0.1025,-0.06075
-0.01555,-0.06675,-0.04785
0.0125,-0.0747,-0.0645
0.016,-0.0927667,-0.0521333
0.03,-0.0933,-0.0532
0.02515,-0.10045,-0.04355
0.0157,-0.1051,-0.0358
0.0391,-0.113,-0.0492667
0.0242,-0.09915,-0.08225
0.022,-0.10685,-0.0921
-0.00585,-0.1016,-0.10825
-0.0005,-0.0887,-0.1141
-0.0078,-0.0872,-0.11065
-0.0206,-0.07385,-0.09545
-0.0293,-0.07135,-0.08945
-0.03005,-0.0831,-0.06615
-0.02125,-0.0715,-0.0746
-0.0383,-0.05085,-0.116
-0.0457,-0.0579,-0.0847
-0.04035,-0.11895,-0.074
-0.03925,-0.1681,-0.08015
-0.0343,-0.1725,-0.06775
-0.0336,-0.141,-0.0938
-0.0037,-0.0771333,-0.0969
-0.0073,-0.0526,-0.1097
-0.00925,-0.0471,-0.11045
0.01295,-0.07085,-0.06725
0.00245,-0.1046,-0.05685
0.0187,-0.09625,-0.05795
0.009,-0.1008,-0.0417
0.0037,-0.1019,-0.09255
-0.0122,-0.09105,-0.08885
0.0079,-0.10495,-0.0753
-0.01325,-0.0754,-0.06705
-0.0133,-0.07595,-0.0661
-0.0137,-0.0734,-0.0735
-0.03345,-0.10185,-0.0859
-0.0392333,-0.1194667,-0.0901
-0.0247,-0.1283,-0.0871
-0.00355,-0.08695,-0.103
0.0049,-0.0562333,-0.0876333
0.0007,-0.0675,-0.0828
0.003,-0.0903,-0.0824
0.0084,-0.1075,-0.0672
0.02515,-0.1058,-0.04435
0.0304667,-0.0761,-0.0379667
0.0149,-0.03475,-0.07355
0.0119,-0.032,-0.0393
0.003,-0.05255,-0.07745
-0.0141333,-0.0990667,-0.1397333
-0.0061,-0.08835,-0.1034
-0.00955,0.0336,-0.09525
-0.0085,0.0929,-0.0936
-0.0154333,0.0945333,-0.1133333
-0.03035,0.07975,-0.1336
-0.01235,0.058,-0.1368
0.0117,0.0137,-0.1442
0.0018333,0.0131333,-0.1986
-0.0093,-0.0275,-0.1849
-0.0037,-0.12995,-0.15255
0.00775,-0.2213,-0.05265
0.0058,-0.20615,-0.01415
-0.012,-0.1708,-0.01535
-0.01,-0.18815,0.02915
-0.0078,-0.2399,0.0908
-0.0098,-0.2922,0.0939
-0.0178,-0.28025,0.03525
-0.02445,-0.20645,-0.0473
-0.005,-0.10345,-0.08265
0.01285,-0.13365,-0.0792
0.0171,-0.23,-0.045
0.00265,-0.31765,-0.0175
-0.00585,-0.2761,0.00255
-0.0292,-0.1827,-0.00815
-0.0317,-0.0926,0.007
-0.042,-0.0598,-0.00205
-0.01675,-0.0803,0.0693
-0.03645,-0.1321,0.0126
-0.04645,-0.13705,-0.05185
-0.0303,-0.11345,-0.122
-0.0238,-0.04015,-0.17425
-0.04375,-0.04135,-0.24025
-0.05005,-0.07015,-0.23245
-0.01235,-0.11615,-0.2047
0.01415,-0.11,-0.1359
0.0311,-0.07325,-0.13705
0.0681333,-0.0492667,-0.0940667
0.1023,-0.0191,-0.053
0.1038,-0.0208333,-0.0321
0.0982,-0.0478,-0.0549
0.1113,-0.05465,-0.07745
0.0611667,-0.0508333,-0.1212667
0.0455,-0.0927,-0.1499
0.0017,-0.1522,-0.1412333
-0.009,-0.1561,-0.1274
-0.0083333,-0.0901667,-0.1080333
-0.0312,-0.0721,-0.0732
-0.0923,-0.04205,-0.0587
-0.1086,-0.0874,-0.0742
-0.1190667,-0.0384333,-0.0413
-0.027,-0.2176,-0.03335
-0.1432,-0.1603,-0.0628
-0.0257,-0.0789667,-0.0738
-0.03845,-0.083,-0.19845
-0.0028,-0.08165,-0.15385
-0.054,-0.09255,-0.149
0.0607,-0.1179,-0.1643
0.0239333,-0.1366333,-0.1242
0.0454,-0.01715,-0.0601
0.02415,-0.0334,-0.03615
0.0409,-0.024,-0.02495
0.07535,-0.0029,-0.04445
0.0496,-0.1676,-0.0741
0.05545,-0.0784,-0.04465
-0.0014,-0.0941,-0.1193
0.0049,-0.0931,-0.1429
-0.0189,-0.0559,-0.15605
-0.04,-0.07005,-0.1108
-0.02815,-0.0702,-0.0922
-0.0207,-0.04975,-0.06975
-0.03655,-0.06115,-0.0726
-0.0252,-0.0823,-0.10375
-0.0322,-0.12075,-0.127
-0.03505,-0.10525,-0.0811
-0.01935,-0.1055,-0.0629
-0.02565,-0.1006,-0.05135
-0.00675,-0.1048,-0.05645
0.00875,-0.1105,-0.0736
-0.008,-0.0862,-0.0782
0.0235,-0.1027667,-0.0840667
0.0428,5e-05,-0.12165
0.0515,-0.0764,-0.118
0.01655,-0.10495,-0.0628
0.0163667,-0.1038,-0.0221
-0.0068,-0.1612,-0.07385
-0.0093,-0.1692,-0.1281
0.0085,-0.1887,-0.1532
